Subject,DataFile.Basename,formalExp,formalExpmovie.RESP,formalExpmovie.RT,keypress1answer,KeyPress1RESP,Keypress1RT,keypress2answer,KeyPress2RESP,Keypress2RT,movie1,Parray,Aarray
3,try-03-1,1,p{ENTER},41824,q,p,33745,p,{ENTER},41824,P+A+B+.avi,p,p
17,try-017-1,1,qp,34020,q,q,29158,p,p,34020,P+A+B+.avi,p,p
17,try-017-1,1,qp,34659,q,q,28867,p,p,34659,P+A+B+.avi,p,p
17,try-017-1,1,qp,33876,q,q,28694,p,p,33876,P+A+B+.avi,p,p
17,try-017-1,1,qp,34741,q,q,28522,p,p,34741,P+A+B+.avi,p,p
17,try-017-1,1,qp,34909,q,q,28865,p,p,34909,P+A+B+.avi,p,p
1,try-01-1,1,qp,33884,q,q,28819,p,p,33884,P+A+B+.avi,p,p
1,try-01-1,1,qp,34001,q,q,28710,p,p,34001,P+A+B+.avi,p,p
1,try-01-1,1,qp,33591,q,q,29145,p,p,33591,P+A+B+.avi,p,p
1,try-01-1,1,qp,33473,q,q,28996,p,p,33473,P+A+B+.avi,p,p
1,try-01-1,1,qp,33703,q,q,29124,p,p,33703,P+A+B+.avi,p,p
10,try-10-1,1,qp,33359,q,q,27981,p,p,33359,P+A+B+.avi,p,p
10,try-10-1,1,qp,33473,q,q,28109,p,p,33473,P+A+B+.avi,p,p
10,try-10-1,1,qp,33637,q,q,28039,p,p,33637,P+A+B+.avi,p,p
10,try-10-1,1,qp,33382,q,q,28128,p,p,33382,P+A+B+.avi,p,p
10,try-10-1,1,qp,33360,q,q,27994,p,p,33360,P+A+B+.avi,p,p
11,try-11-1,1,qp,33530,q,q,28240,p,p,33530,P+A+B+.avi,p,p
11,try-11-1,1,qp,33412,q,q,28254,p,p,33412,P+A+B+.avi,p,p
11,try-11-1,1,qp,34275,q,q,28508,p,p,34275,P+A+B+.avi,p,p
11,try-11-1,1,qp,33652,q,q,28536,p,p,33652,P+A+B+.avi,p,p
11,try-11-1,1,qp,33349,q,q,28635,p,p,33349,P+A+B+.avi,p,p
12,try-12-1,1,qp,34143,q,q,27621,p,p,34143,P+A+B+.avi,p,p
12,try-12-1,1,qp,33434,q,q,28214,p,p,33434,P+A+B+.avi,p,p
12,try-12-1,1,qp,33293,q,q,28004,p,p,33293,P+A+B+.avi,p,p
12,try-12-1,1,qp,33331,q,q,28174,p,p,33331,P+A+B+.avi,p,p
12,try-12-1,1,qp,33397,q,q,28013,p,p,33397,P+A+B+.avi,p,p
13,try-13-1,1,qp,33420,q,q,28103,p,p,33420,P+A+B+.avi,p,p
13,try-13-1,1,qp,33626,q,q,28471,p,p,33626,P+A+B+.avi,p,p
13,try-13-1,1,qp,33331,q,q,28141,p,p,33331,P+A+B+.avi,p,p
13,try-13-1,1,qp,33375,q,q,28145,p,p,33375,P+A+B+.avi,p,p
13,try-13-1,1,qp,33419,q,q,28151,p,p,33419,P+A+B+.avi,p,p
14,try-14-1,1,qp,33362,q,q,28272,p,p,33362,P+A+B+.avi,p,p
14,try-14-1,1,qp,33400,q,q,28257,p,p,33400,P+A+B+.avi,p,p
14,try-14-1,1,qp,33624,q,q,28264,p,p,33624,P+A+B+.avi,p,p
14,try-14-1,1,qp,33637,q,q,28204,p,p,33637,P+A+B+.avi,p,p
14,try-14-1,1,qp,33432,q,q,28241,p,p,33432,P+A+B+.avi,p,p
15,try-15-1,1,qp,33595,q,q,28440,p,p,33595,P+A+B+.avi,p,p
15,try-15-1,1,qp,33910,q,q,28405,p,p,33910,P+A+B+.avi,p,p
15,try-15-1,1,qp,33561,q,q,28426,p,p,33561,P+A+B+.avi,p,p
15,try-15-1,1,qp,33684,q,q,28495,p,p,33684,P+A+B+.avi,p,p
15,try-15-1,1,qp,33532,q,q,28309,p,p,33532,P+A+B+.avi,p,p
16,try-16-1,1,qp,33470,q,q,28193,p,p,33470,P+A+B+.avi,p,p
16,try-16-1,1,qp,33900,q,q,28258,p,p,33900,P+A+B+.avi,p,p
16,try-16-1,1,qp,33573,q,q,28277,p,p,33573,P+A+B+.avi,p,p
16,try-16-1,1,qp,33416,q,q,28290,p,p,33416,P+A+B+.avi,p,p
16,try-16-1,1,qp,33559,q,q,28501,p,p,33559,P+A+B+.avi,p,p
18,try-18-1,1,qp,33861,q,q,28441,p,p,33861,P+A+B+.avi,p,p
18,try-18-1,1,qp,33773,q,q,28371,p,p,33773,P+A+B+.avi,p,p
18,try-18-1,1,qp,33545,q,q,28428,p,p,33545,P+A+B+.avi,p,p
18,try-18-1,1,qp,33741,q,q,28317,p,p,33741,P+A+B+.avi,p,p
18,try-18-1,1,qp,33927,q,q,28377,p,p,33927,P+A+B+.avi,p,p
19,try-19-1,1,qp,33388,q,q,28049,p,p,33388,P+A+B+.avi,p,p
19,try-19-1,1,qp,33559,q,q,28234,p,p,33559,P+A+B+.avi,p,p
19,try-19-1,1,qp,33350,q,q,28197,p,p,33350,P+A+B+.avi,p,p
19,try-19-1,1,qp,33374,q,q,28182,p,p,33374,P+A+B+.avi,p,p
19,try-19-1,1,qp,33408,q,q,28018,p,p,33408,P+A+B+.avi,p,p
2,try-02-1,1,qp,33952,q,q,28197,p,p,33952,P+A+B+.avi,p,p
2,try-02-1,1,qp,33621,q,q,28196,p,p,33621,P+A+B+.avi,p,p
2,try-02-1,1,qp,33943,q,q,28280,p,p,33943,P+A+B+.avi,p,p
2,try-02-1,1,qp,33329,q,q,28307,p,p,33329,P+A+B+.avi,p,p
2,try-02-1,1,qp,33484,q,q,28269,p,p,33484,P+A+B+.avi,p,p
20,try-20-1,1,qp,33472,q,q,28188,p,p,33472,P+A+B+.avi,p,p
20,try-20-1,1,qp,33536,q,q,28165,p,p,33536,P+A+B+.avi,p,p
20,try-20-1,1,qp,33330,q,q,28120,p,p,33330,P+A+B+.avi,p,p
20,try-20-1,1,qp,33306,q,q,28351,p,p,33306,P+A+B+.avi,p,p
20,try-20-1,1,qp,33295,q,q,28050,p,p,33295,P+A+B+.avi,p,p
3,try-03-1,1,qp,33650,q,q,28562,p,p,33650,P+A+B+.avi,p,p
3,try-03-1,1,qp,33449,q,q,28431,p,p,33449,P+A+B+.avi,p,p
3,try-03-1,1,qp,33586,q,q,28150,p,p,33586,P+A+B+.avi,p,p
3,try-03-1,1,qp,33600,q,q,28238,p,p,33600,P+A+B+.avi,p,p
4,try-04-1,1,qp,33314,q,q,28218,p,p,33314,P+A+B+.avi,p,p
4,try-04-1,1,qp,33375,q,q,28166,p,p,33375,P+A+B+.avi,p,p
4,try-04-1,1,qp,33291,q,q,28306,p,p,33291,P+A+B+.avi,p,p
4,try-04-1,1,qp,33392,q,q,28187,p,p,33392,P+A+B+.avi,p,p
4,try-04-1,1,qp,33331,q,q,28129,p,p,33331,P+A+B+.avi,p,p
5,try-5-1,1,qp,33279,q,q,28112,p,p,33279,P+A+B+.avi,p,p
5,try-5-1,1,qp,33304,q,q,28061,p,p,33304,P+A+B+.avi,p,p
5,try-5-1,1,qp,33373,q,q,28165,p,p,33373,P+A+B+.avi,p,p
5,try-5-1,1,qp,33435,q,q,28092,p,p,33435,P+A+B+.avi,p,p
5,try-5-1,1,qp,33346,q,q,28071,p,p,33346,P+A+B+.avi,p,p
6,try-6-1,1,qp,33601,q,q,28120,p,p,33601,P+A+B+.avi,p,p
6,try-6-1,1,qp,33675,q,q,28185,p,p,33675,P+A+B+.avi,p,p
6,try-6-1,1,qp,33303,q,q,28056,p,p,33303,P+A+B+.avi,p,p
6,try-6-1,1,qp,33532,q,q,28200,p,p,33532,P+A+B+.avi,p,p
7,try-7-1,1,qp,33578,q,q,28393,p,p,33578,P+A+B+.avi,p,p
7,try-7-1,1,qp,33374,q,q,28217,p,p,33374,P+A+B+.avi,p,p
7,try-7-1,1,qp,33384,q,q,28225,p,p,33384,P+A+B+.avi,p,p
7,try-7-1,1,qp,33505,q,q,28280,p,p,33505,P+A+B+.avi,p,p
7,try-7-1,1,qp,33657,q,q,28250,p,p,33657,P+A+B+.avi,p,p
8,try-8-1,1,qp,33489,q,q,28223,p,p,33489,P+A+B+.avi,p,p
8,try-8-1,1,qp,33632,q,q,28401,p,p,33632,P+A+B+.avi,p,p
8,try-8-1,1,qp,33524,q,q,28690,p,p,33524,P+A+B+.avi,p,p
8,try-8-1,1,qp,33406,q,q,28269,p,p,33406,P+A+B+.avi,p,p
9,try-9-1,1,qp,33813,q,q,28194,p,p,33813,P+A+B+.avi,p,p
9,try-9-1,1,qp,33538,q,q,28180,p,p,33538,P+A+B+.avi,p,p
9,try-9-1,1,qp,33596,q,q,28185,p,p,33596,P+A+B+.avi,p,p
9,try-9-1,1,qp,33775,q,q,28221,p,p,33775,P+A+B+.avi,p,p
9,try-9-1,1,qp,33319,q,q,28224,p,p,33319,P+A+B+.avi,p,p
6,try-6-1,1,qq,28341,q,q,22201,p,q,28341,P+A+B+.avi,p,p
8,try-8-1,1,qq,28934,q,q,28692,p,q,28934,P+A+B+.avi,p,p
8,try-8-1,2,{ENTER},30,q,{ENTER},30,{ENTER},,,P+A+B-.avi,p,p
17,try-017-1,2,q{ENTER},37502,q,q,28331,{ENTER},{ENTER},37502,P+A+B-.avi,p,p
17,try-017-1,2,q{ENTER},35100,q,q,28383,{ENTER},{ENTER},35100,P+A+B-.avi,p,p
17,try-017-1,2,q{ENTER},35017,q,q,28557,{ENTER},{ENTER},35017,P+A+B-.avi,p,p
17,try-017-1,2,q{ENTER},35878,q,q,28646,{ENTER},{ENTER},35878,P+A+B-.avi,p,p
17,try-017-1,2,q{ENTER},35120,q,q,28851,{ENTER},{ENTER},35120,P+A+B-.avi,p,p
1,try-01-1,2,q{ENTER},34236,q,q,28969,{ENTER},{ENTER},34236,P+A+B-.avi,p,p
1,try-01-1,2,q{ENTER},34409,q,q,29315,{ENTER},{ENTER},34409,P+A+B-.avi,p,p
1,try-01-1,2,q{ENTER},34319,q,q,29151,{ENTER},{ENTER},34319,P+A+B-.avi,p,p
1,try-01-1,2,q{ENTER},34379,q,q,28932,{ENTER},{ENTER},34379,P+A+B-.avi,p,p
1,try-01-1,2,q{ENTER},34384,q,q,29532,{ENTER},{ENTER},34384,P+A+B-.avi,p,p
10,try-10-1,2,q{ENTER},34242,q,q,28150,{ENTER},{ENTER},34242,P+A+B-.avi,p,p
10,try-10-1,2,q{ENTER},34545,q,q,28351,{ENTER},{ENTER},34545,P+A+B-.avi,p,p
10,try-10-1,2,q{ENTER},33468,q,q,27993,{ENTER},{ENTER},33468,P+A+B-.avi,p,p
10,try-10-1,2,q{ENTER},34198,q,q,28005,{ENTER},{ENTER},34198,P+A+B-.avi,p,p
10,try-10-1,2,q{ENTER},33796,q,q,27993,{ENTER},{ENTER},33796,P+A+B-.avi,p,p
11,try-11-1,2,q{ENTER},35369,q,q,28320,{ENTER},{ENTER},35369,P+A+B-.avi,p,p
11,try-11-1,2,q{ENTER},34350,q,q,28417,{ENTER},{ENTER},34350,P+A+B-.avi,p,p
11,try-11-1,2,q{ENTER},34620,q,q,28299,{ENTER},{ENTER},34620,P+A+B-.avi,p,p
11,try-11-1,2,q{ENTER},34308,q,q,28499,{ENTER},{ENTER},34308,P+A+B-.avi,p,p
11,try-11-1,2,q{ENTER},34496,q,q,28347,{ENTER},{ENTER},34496,P+A+B-.avi,p,p
12,try-12-1,2,q{ENTER},34432,q,q,27885,{ENTER},{ENTER},34432,P+A+B-.avi,p,p
12,try-12-1,2,q{ENTER},34902,q,q,28021,{ENTER},{ENTER},34902,P+A+B-.avi,p,p
12,try-12-1,2,q{ENTER},35169,q,q,27977,{ENTER},{ENTER},35169,P+A+B-.avi,p,p
12,try-12-1,2,q{ENTER},34526,q,q,27894,{ENTER},{ENTER},34526,P+A+B-.avi,p,p
12,try-12-1,2,q{ENTER},34768,q,q,27947,{ENTER},{ENTER},34768,P+A+B-.avi,p,p
13,try-13-1,2,q{ENTER},35100,q,q,28188,{ENTER},{ENTER},35100,P+A+B-.avi,p,p
13,try-13-1,2,q{ENTER},34719,q,q,28201,{ENTER},{ENTER},34719,P+A+B-.avi,p,p
13,try-13-1,2,q{ENTER},34380,q,q,28134,{ENTER},{ENTER},34380,P+A+B-.avi,p,p
13,try-13-1,2,q{ENTER},34489,q,q,28131,{ENTER},{ENTER},34489,P+A+B-.avi,p,p
14,try-14-1,2,q{ENTER},35430,q,q,28312,{ENTER},{ENTER},35430,P+A+B-.avi,p,p
14,try-14-1,2,q{ENTER},34885,q,q,28236,{ENTER},{ENTER},34885,P+A+B-.avi,p,p
14,try-14-1,2,q{ENTER},34700,q,q,28236,{ENTER},{ENTER},34700,P+A+B-.avi,p,p
14,try-14-1,2,q{ENTER},34198,q,q,28266,{ENTER},{ENTER},34198,P+A+B-.avi,p,p
14,try-14-1,2,q{ENTER},34127,q,q,28149,{ENTER},{ENTER},34127,P+A+B-.avi,p,p
15,try-15-1,2,q{ENTER},35815,q,q,28363,{ENTER},{ENTER},35815,P+A+B-.avi,p,p
15,try-15-1,2,q{ENTER},35366,q,q,28440,{ENTER},{ENTER},35366,P+A+B-.avi,p,p
15,try-15-1,2,q{ENTER},35767,q,q,28391,{ENTER},{ENTER},35767,P+A+B-.avi,p,p
15,try-15-1,2,q{ENTER},34872,q,q,28376,{ENTER},{ENTER},34872,P+A+B-.avi,p,p
16,try-16-1,2,q{ENTER},33817,q,q,28272,{ENTER},{ENTER},33817,P+A+B-.avi,p,p
16,try-16-1,2,q{ENTER},33548,q,q,28332,{ENTER},{ENTER},33548,P+A+B-.avi,p,p
16,try-16-1,2,q{ENTER},33673,q,q,28249,{ENTER},{ENTER},33673,P+A+B-.avi,p,p
16,try-16-1,2,q{ENTER},33851,q,q,28234,{ENTER},{ENTER},33851,P+A+B-.avi,p,p
18,try-18-1,2,q{ENTER},33794,q,q,28317,{ENTER},{ENTER},33794,P+A+B-.avi,p,p
18,try-18-1,2,q{ENTER},33841,q,q,28331,{ENTER},{ENTER},33841,P+A+B-.avi,p,p
18,try-18-1,2,q{ENTER},33761,q,q,28442,{ENTER},{ENTER},33761,P+A+B-.avi,p,p
18,try-18-1,2,q{ENTER},33818,q,q,28361,{ENTER},{ENTER},33818,P+A+B-.avi,p,p
18,try-18-1,2,q{ENTER},33903,q,q,28441,{ENTER},{ENTER},33903,P+A+B-.avi,p,p
19,try-19-1,2,q{ENTER},35235,q,q,28092,{ENTER},{ENTER},35235,P+A+B-.avi,p,p
19,try-19-1,2,q{ENTER},34925,q,q,28095,{ENTER},{ENTER},34925,P+A+B-.avi,p,p
19,try-19-1,2,q{ENTER},34988,q,q,28058,{ENTER},{ENTER},34988,P+A+B-.avi,p,p
19,try-19-1,2,q{ENTER},35038,q,q,28210,{ENTER},{ENTER},35038,P+A+B-.avi,p,p
19,try-19-1,2,q{ENTER},34909,q,q,28387,{ENTER},{ENTER},34909,P+A+B-.avi,p,p
2,try-02-1,2,q{ENTER},35554,q,q,28192,{ENTER},{ENTER},35554,P+A+B-.avi,p,p
2,try-02-1,2,q{ENTER},34449,q,q,28598,{ENTER},{ENTER},34449,P+A+B-.avi,p,p
2,try-02-1,2,q{ENTER},34705,q,q,28177,{ENTER},{ENTER},34705,P+A+B-.avi,p,p
2,try-02-1,2,q{ENTER},34797,q,q,28256,{ENTER},{ENTER},34797,P+A+B-.avi,p,p
2,try-02-1,2,q{ENTER},34117,q,q,28272,{ENTER},{ENTER},34117,P+A+B-.avi,p,p
20,try-20-1,2,q{ENTER},36260,q,q,28257,{ENTER},{ENTER},36260,P+A+B-.avi,p,p
20,try-20-1,2,q{ENTER},35361,q,q,28039,{ENTER},{ENTER},35361,P+A+B-.avi,p,p
20,try-20-1,2,q{ENTER},35470,q,q,28160,{ENTER},{ENTER},35470,P+A+B-.avi,p,p
20,try-20-1,2,q{ENTER},35034,q,q,28148,{ENTER},{ENTER},35034,P+A+B-.avi,p,p
20,try-20-1,2,q{ENTER},35108,q,q,28152,{ENTER},{ENTER},35108,P+A+B-.avi,p,p
3,try-03-1,2,q{ENTER},39113,q,q,28473,{ENTER},{ENTER},39113,P+A+B-.avi,p,p
3,try-03-1,2,q{ENTER},40349,q,q,29056,{ENTER},{ENTER},40349,P+A+B-.avi,p,p
3,try-03-1,2,q{ENTER},39323,q,q,28139,{ENTER},{ENTER},39323,P+A+B-.avi,p,p
3,try-03-1,2,q{ENTER},38183,q,q,28230,{ENTER},{ENTER},38183,P+A+B-.avi,p,p
4,try-04-1,2,q{ENTER},34599,q,q,28212,{ENTER},{ENTER},34599,P+A+B-.avi,p,p
4,try-04-1,2,q{ENTER},34057,q,q,28217,{ENTER},{ENTER},34057,P+A+B-.avi,p,p
4,try-04-1,2,q{ENTER},34012,q,q,28169,{ENTER},{ENTER},34012,P+A+B-.avi,p,p
4,try-04-1,2,q{ENTER},34142,q,q,28163,{ENTER},{ENTER},34142,P+A+B-.avi,p,p
4,try-04-1,2,q{ENTER},34074,q,q,28221,{ENTER},{ENTER},34074,P+A+B-.avi,p,p
5,try-5-1,2,q{ENTER},33841,q,q,28029,{ENTER},{ENTER},33841,P+A+B-.avi,p,p
5,try-5-1,2,q{ENTER},33467,q,q,28285,{ENTER},{ENTER},33467,P+A+B-.avi,p,p
5,try-5-1,2,q{ENTER},33498,q,q,28275,{ENTER},{ENTER},33498,P+A+B-.avi,p,p
5,try-5-1,2,q{ENTER},33661,q,q,28069,{ENTER},{ENTER},33661,P+A+B-.avi,p,p
5,try-5-1,2,q{ENTER},30267,q,q,28251,{ENTER},{ENTER},30267,P+A+B-.avi,p,p
6,try-6-1,2,q{ENTER},34787,q,q,28092,{ENTER},{ENTER},34787,P+A+B-.avi,p,p
6,try-6-1,2,q{ENTER},34739,q,q,28119,{ENTER},{ENTER},34739,P+A+B-.avi,p,p
6,try-6-1,2,q{ENTER},34343,q,q,28058,{ENTER},{ENTER},34343,P+A+B-.avi,p,p
6,try-6-1,2,q{ENTER},34820,q,q,28178,{ENTER},{ENTER},34820,P+A+B-.avi,p,p
7,try-7-1,2,q{ENTER},33668,q,q,28228,{ENTER},{ENTER},33668,P+A+B-.avi,p,p
7,try-7-1,2,q{ENTER},33800,q,q,28309,{ENTER},{ENTER},33800,P+A+B-.avi,p,p
7,try-7-1,2,q{ENTER},33707,q,q,28275,{ENTER},{ENTER},33707,P+A+B-.avi,p,p
7,try-7-1,2,q{ENTER},33669,q,q,28256,{ENTER},{ENTER},33669,P+A+B-.avi,p,p
8,try-8-1,2,q{ENTER},41283,q,q,28254,{ENTER},{ENTER},41283,P+A+B-.avi,p,p
8,try-8-1,2,q{ENTER},35666,q,q,30203,{ENTER},{ENTER},35666,P+A+B-.avi,p,p
8,try-8-1,2,q{ENTER},35188,q,q,28192,{ENTER},{ENTER},35188,P+A+B-.avi,p,p
9,try-9-1,2,q{ENTER},35738,q,q,28131,{ENTER},{ENTER},35738,P+A+B-.avi,p,p
9,try-9-1,2,q{ENTER},35039,q,q,28216,{ENTER},{ENTER},35039,P+A+B-.avi,p,p
9,try-9-1,2,q{ENTER},35278,q,q,28225,{ENTER},{ENTER},35278,P+A+B-.avi,p,p
9,try-9-1,2,q{ENTER},35120,q,q,28233,{ENTER},{ENTER},35120,P+A+B-.avi,p,p
9,try-9-1,2,q{ENTER},35255,q,q,28253,{ENTER},{ENTER},35255,P+A+B-.avi,p,p
13,try-13-1,2,qp,33538,q,q,28165,{ENTER},p,33538,P+A+B-.avi,p,p
15,try-15-1,2,qp,33707,q,q,28356,{ENTER},p,33707,P+A+B-.avi,p,p
6,try-6-1,2,qp,33717,q,q,28051,{ENTER},p,33717,P+A+B-.avi,p,p
7,try-7-1,2,qp,33685,q,q,28316,{ENTER},p,33685,P+A+B-.avi,p,p
8,try-8-1,2,qp,34114,q,q,28269,{ENTER},p,34114,P+A+B-.avi,p,p
16,try-16-1,2,qq,28063,q,q,27487,{ENTER},q,28063,P+A+B-.avi,p,p
3,try-03-1,2,qq,28320,q,q,23271,{ENTER},q,28320,P+A+B-.avi,p,p
17,try-017-1,3,qp,33975,q,q,22751,p,p,33975,P+A-B+.avi,p,{ENTER}
17,try-017-1,3,qp,33845,q,q,22688,p,p,33845,P+A-B+.avi,p,{ENTER}
17,try-017-1,3,qp,33818,q,q,23022,p,p,33818,P+A-B+.avi,p,{ENTER}
17,try-017-1,3,qp,33902,q,q,22931,p,p,33902,P+A-B+.avi,p,{ENTER}
17,try-017-1,3,qp,34325,q,q,22724,p,p,34325,P+A-B+.avi,p,{ENTER}
1,try-01-1,3,qp,33900,q,q,22875,p,p,33900,P+A-B+.avi,p,{ENTER}
1,try-01-1,3,qp,33629,q,q,23129,p,p,33629,P+A-B+.avi,p,{ENTER}
1,try-01-1,3,qp,33508,q,q,23737,p,p,33508,P+A-B+.avi,p,{ENTER}
1,try-01-1,3,qp,33780,q,q,23415,p,p,33780,P+A-B+.avi,p,{ENTER}
1,try-01-1,3,qp,33633,q,q,23015,p,p,33633,P+A-B+.avi,p,{ENTER}
10,try-10-1,3,qp,33609,q,q,22096,p,p,33609,P+A-B+.avi,p,{ENTER}
10,try-10-1,3,qp,33552,q,q,21615,p,p,33552,P+A-B+.avi,p,{ENTER}
10,try-10-1,3,qp,33366,q,q,22131,p,p,33366,P+A-B+.avi,p,{ENTER}
10,try-10-1,3,qp,33497,q,q,22097,p,p,33497,P+A-B+.avi,p,{ENTER}
10,try-10-1,3,qp,33379,q,q,22053,p,p,33379,P+A-B+.avi,p,{ENTER}
11,try-11-1,3,qp,33365,q,q,22557,p,p,33365,P+A-B+.avi,p,{ENTER}
11,try-11-1,3,qp,33427,q,q,22712,p,p,33427,P+A-B+.avi,p,{ENTER}
11,try-11-1,3,qp,33443,q,q,22459,p,p,33443,P+A-B+.avi,p,{ENTER}
11,try-11-1,3,qp,33399,q,q,22477,p,p,33399,P+A-B+.avi,p,{ENTER}
11,try-11-1,3,qp,33444,q,q,22495,p,p,33444,P+A-B+.avi,p,{ENTER}
12,try-12-1,3,qp,33394,q,q,22104,p,p,33394,P+A-B+.avi,p,{ENTER}
12,try-12-1,3,qp,33422,q,q,22063,p,p,33422,P+A-B+.avi,p,{ENTER}
12,try-12-1,3,qp,33393,q,q,22052,p,p,33393,P+A-B+.avi,p,{ENTER}
12,try-12-1,3,qp,33457,q,q,22120,p,p,33457,P+A-B+.avi,p,{ENTER}
12,try-12-1,3,qp,33296,q,q,22058,p,p,33296,P+A-B+.avi,p,{ENTER}
13,try-13-1,3,qp,33451,q,q,22292,p,p,33451,P+A-B+.avi,p,{ENTER}
13,try-13-1,3,qp,33360,q,q,22180,p,p,33360,P+A-B+.avi,p,{ENTER}
13,try-13-1,3,qp,33335,q,q,22153,p,p,33335,P+A-B+.avi,p,{ENTER}
13,try-13-1,3,qp,33407,q,q,22383,p,p,33407,P+A-B+.avi,p,{ENTER}
13,try-13-1,3,qp,33359,q,q,22277,p,p,33359,P+A-B+.avi,p,{ENTER}
14,try-14-1,3,qp,33736,q,q,22616,p,p,33736,P+A-B+.avi,p,{ENTER}
14,try-14-1,3,qp,34925,q,q,22389,p,p,34925,P+A-B+.avi,p,{ENTER}
14,try-14-1,3,qp,33626,q,q,22260,p,p,33626,P+A-B+.avi,p,{ENTER}
14,try-14-1,3,qp,33493,q,q,22275,p,p,33493,P+A-B+.avi,p,{ENTER}
14,try-14-1,3,qp,33384,q,q,22317,p,p,33384,P+A-B+.avi,p,{ENTER}
15,try-15-1,3,qp,33455,q,q,22619,p,p,33455,P+A-B+.avi,p,{ENTER}
15,try-15-1,3,qp,33590,q,q,22502,p,p,33590,P+A-B+.avi,p,{ENTER}
15,try-15-1,3,qp,33495,q,q,22555,p,p,33495,P+A-B+.avi,p,{ENTER}
15,try-15-1,3,qp,33695,q,q,22665,p,p,33695,P+A-B+.avi,p,{ENTER}
15,try-15-1,3,qp,33361,q,q,22438,p,p,33361,P+A-B+.avi,p,{ENTER}
16,try-16-1,3,qp,33535,q,q,22718,p,p,33535,P+A-B+.avi,p,{ENTER}
16,try-16-1,3,qp,33363,q,q,22290,p,p,33363,P+A-B+.avi,p,{ENTER}
16,try-16-1,3,qp,33516,q,q,22449,p,p,33516,P+A-B+.avi,p,{ENTER}
16,try-16-1,3,qp,33338,q,q,22396,p,p,33338,P+A-B+.avi,p,{ENTER}
16,try-16-1,3,qp,33576,q,q,22383,p,p,33576,P+A-B+.avi,p,{ENTER}
18,try-18-1,3,qp,33500,q,q,22241,p,p,33500,P+A-B+.avi,p,{ENTER}
18,try-18-1,3,qp,33533,q,q,22545,p,p,33533,P+A-B+.avi,p,{ENTER}
18,try-18-1,3,qp,33776,q,q,22482,p,p,33776,P+A-B+.avi,p,{ENTER}
18,try-18-1,3,qp,33797,q,q,22517,p,p,33797,P+A-B+.avi,p,{ENTER}
18,try-18-1,3,qp,33498,q,q,22562,p,p,33498,P+A-B+.avi,p,{ENTER}
19,try-19-1,3,qp,33424,q,q,22176,p,p,33424,P+A-B+.avi,p,{ENTER}
19,try-19-1,3,qp,33333,q,q,22496,p,p,33333,P+A-B+.avi,p,{ENTER}
19,try-19-1,3,qp,33327,q,q,22219,p,p,33327,P+A-B+.avi,p,{ENTER}
19,try-19-1,3,qp,33402,q,q,22588,p,p,33402,P+A-B+.avi,p,{ENTER}
19,try-19-1,3,qp,33395,q,q,22281,p,p,33395,P+A-B+.avi,p,{ENTER}
2,try-02-1,3,qp,33483,q,q,22327,p,p,33483,P+A-B+.avi,p,{ENTER}
2,try-02-1,3,qp,33389,q,q,22279,p,p,33389,P+A-B+.avi,p,{ENTER}
2,try-02-1,3,qp,33537,q,q,22320,p,p,33537,P+A-B+.avi,p,{ENTER}
2,try-02-1,3,qp,33515,q,q,22460,p,p,33515,P+A-B+.avi,p,{ENTER}
2,try-02-1,3,qp,33414,q,q,22420,p,p,33414,P+A-B+.avi,p,{ENTER}
20,try-20-1,3,qp,33439,q,q,22258,p,p,33439,P+A-B+.avi,p,{ENTER}
20,try-20-1,3,qp,33298,q,q,22326,p,p,33298,P+A-B+.avi,p,{ENTER}
20,try-20-1,3,qp,33311,q,q,22366,p,p,33311,P+A-B+.avi,p,{ENTER}
20,try-20-1,3,qp,33278,q,q,22167,p,p,33278,P+A-B+.avi,p,{ENTER}
20,try-20-1,3,qp,33420,q,q,22308,p,p,33420,P+A-B+.avi,p,{ENTER}
3,try-03-1,3,qp,33759,q,q,22753,p,p,33759,P+A-B+.avi,p,{ENTER}
3,try-03-1,3,qp,33672,q,q,22343,p,p,33672,P+A-B+.avi,p,{ENTER}
3,try-03-1,3,qp,33581,q,q,22301,p,p,33581,P+A-B+.avi,p,{ENTER}
3,try-03-1,3,qp,33481,q,q,22305,p,p,33481,P+A-B+.avi,p,{ENTER}
3,try-03-1,3,qp,33777,q,q,22326,p,p,33777,P+A-B+.avi,p,{ENTER}
4,try-04-1,3,qp,33344,q,q,22247,p,p,33344,P+A-B+.avi,p,{ENTER}
4,try-04-1,3,qp,33373,q,q,22291,p,p,33373,P+A-B+.avi,p,{ENTER}
4,try-04-1,3,qp,33328,q,q,22305,p,p,33328,P+A-B+.avi,p,{ENTER}
4,try-04-1,3,qp,33281,q,q,22241,p,p,33281,P+A-B+.avi,p,{ENTER}
4,try-04-1,3,qp,33271,q,q,22231,p,p,33271,P+A-B+.avi,p,{ENTER}
5,try-5-1,3,qp,33482,q,q,22819,p,p,33482,P+A-B+.avi,p,{ENTER}
5,try-5-1,3,qp,33395,q,q,22132,p,p,33395,P+A-B+.avi,p,{ENTER}
5,try-5-1,3,qp,33430,q,q,22085,p,p,33430,P+A-B+.avi,p,{ENTER}
5,try-5-1,3,qp,33351,q,q,22178,p,p,33351,P+A-B+.avi,p,{ENTER}
5,try-5-1,3,qp,33456,q,q,22132,p,p,33456,P+A-B+.avi,p,{ENTER}
6,try-6-1,3,qp,33515,q,q,22196,p,p,33515,P+A-B+.avi,p,{ENTER}
6,try-6-1,3,qp,33402,q,q,22222,p,p,33402,P+A-B+.avi,p,{ENTER}
6,try-6-1,3,qp,33370,q,q,22108,p,p,33370,P+A-B+.avi,p,{ENTER}
6,try-6-1,3,qp,33270,q,q,22268,p,p,33270,P+A-B+.avi,p,{ENTER}
6,try-6-1,3,qp,33293,q,q,22100,p,p,33293,P+A-B+.avi,p,{ENTER}
7,try-7-1,3,qp,33639,q,q,22316,p,p,33639,P+A-B+.avi,p,{ENTER}
7,try-7-1,3,qp,33336,q,q,22319,p,p,33336,P+A-B+.avi,p,{ENTER}
7,try-7-1,3,qp,33437,q,q,22293,p,p,33437,P+A-B+.avi,p,{ENTER}
7,try-7-1,3,qp,33335,q,q,22302,p,p,33335,P+A-B+.avi,p,{ENTER}
7,try-7-1,3,qp,33349,q,q,22297,p,p,33349,P+A-B+.avi,p,{ENTER}
8,try-8-1,3,qp,33389,q,q,22264,p,p,33389,P+A-B+.avi,p,{ENTER}
8,try-8-1,3,qp,33514,q,q,22353,p,p,33514,P+A-B+.avi,p,{ENTER}
8,try-8-1,3,qp,33385,q,q,22467,p,p,33385,P+A-B+.avi,p,{ENTER}
8,try-8-1,3,qp,33496,q,q,22273,p,p,33496,P+A-B+.avi,p,{ENTER}
8,try-8-1,3,qp,33516,q,q,22364,p,p,33516,P+A-B+.avi,p,{ENTER}
9,try-9-1,3,qp,33522,q,q,22254,p,p,33522,P+A-B+.avi,p,{ENTER}
9,try-9-1,3,qp,33535,q,q,22255,p,p,33535,P+A-B+.avi,p,{ENTER}
9,try-9-1,3,qp,28759,q,q,22282,p,p,28759,P+A-B+.avi,p,{ENTER}
9,try-9-1,3,qp,33407,q,q,22284,p,p,33407,P+A-B+.avi,p,{ENTER}
9,try-9-1,3,qp,33590,q,q,22311,p,p,33590,P+A-B+.avi,p,{ENTER}
17,try-017-1,4,q{ENTER},35388,q,q,22995,{ENTER},{ENTER},35388,P+A-B-.avi,p,{ENTER}
17,try-017-1,4,q{ENTER},34989,q,q,22742,{ENTER},{ENTER},34989,P+A-B-.avi,p,{ENTER}
17,try-017-1,4,q{ENTER},34921,q,q,22838,{ENTER},{ENTER},34921,P+A-B-.avi,p,{ENTER}
17,try-017-1,4,q{ENTER},34860,q,q,23495,{ENTER},{ENTER},34860,P+A-B-.avi,p,{ENTER}
1,try-01-1,4,q{ENTER},34239,q,q,23119,{ENTER},{ENTER},34239,P+A-B-.avi,p,{ENTER}
1,try-01-1,4,q{ENTER},34201,q,q,23054,{ENTER},{ENTER},34201,P+A-B-.avi,p,{ENTER}
1,try-01-1,4,q{ENTER},34278,q,q,23768,{ENTER},{ENTER},34278,P+A-B-.avi,p,{ENTER}
1,try-01-1,4,q{ENTER},34275,q,q,23853,{ENTER},{ENTER},34275,P+A-B-.avi,p,{ENTER}
1,try-01-1,4,q{ENTER},34279,q,q,23281,{ENTER},{ENTER},34279,P+A-B-.avi,p,{ENTER}
10,try-10-1,4,q{ENTER},34138,q,q,22160,{ENTER},{ENTER},34138,P+A-B-.avi,p,{ENTER}
10,try-10-1,4,q{ENTER},33483,q,q,22099,{ENTER},{ENTER},33483,P+A-B-.avi,p,{ENTER}
10,try-10-1,4,q{ENTER},33490,q,q,22096,{ENTER},{ENTER},33490,P+A-B-.avi,p,{ENTER}
10,try-10-1,4,q{ENTER},33433,q,q,22090,{ENTER},{ENTER},33433,P+A-B-.avi,p,{ENTER}
10,try-10-1,4,q{ENTER},33387,q,q,22720,{ENTER},{ENTER},33387,P+A-B-.avi,p,{ENTER}
11,try-11-1,4,q{ENTER},35416,q,q,22467,{ENTER},{ENTER},35416,P+A-B-.avi,p,{ENTER}
11,try-11-1,4,q{ENTER},34527,q,q,22436,{ENTER},{ENTER},34527,P+A-B-.avi,p,{ENTER}
11,try-11-1,4,q{ENTER},34317,q,q,22611,{ENTER},{ENTER},34317,P+A-B-.avi,p,{ENTER}
11,try-11-1,4,q{ENTER},35142,q,q,22462,{ENTER},{ENTER},35142,P+A-B-.avi,p,{ENTER}
11,try-11-1,4,q{ENTER},33590,q,q,22530,{ENTER},{ENTER},33590,P+A-B-.avi,p,{ENTER}
12,try-12-1,4,q{ENTER},34845,q,q,22328,{ENTER},{ENTER},34845,P+A-B-.avi,p,{ENTER}
12,try-12-1,4,q{ENTER},35172,q,q,22107,{ENTER},{ENTER},35172,P+A-B-.avi,p,{ENTER}
12,try-12-1,4,q{ENTER},34906,q,q,22121,{ENTER},{ENTER},34906,P+A-B-.avi,p,{ENTER}
12,try-12-1,4,q{ENTER},34715,q,q,22039,{ENTER},{ENTER},34715,P+A-B-.avi,p,{ENTER}
12,try-12-1,4,q{ENTER},34979,q,q,22308,{ENTER},{ENTER},34979,P+A-B-.avi,p,{ENTER}
13,try-13-1,4,q{ENTER},35285,q,q,22208,{ENTER},{ENTER},35285,P+A-B-.avi,p,{ENTER}
13,try-13-1,4,q{ENTER},34704,q,q,22165,{ENTER},{ENTER},34704,P+A-B-.avi,p,{ENTER}
13,try-13-1,4,q{ENTER},34680,q,q,22266,{ENTER},{ENTER},34680,P+A-B-.avi,p,{ENTER}
13,try-13-1,4,q{ENTER},34265,q,q,22314,{ENTER},{ENTER},34265,P+A-B-.avi,p,{ENTER}
13,try-13-1,4,q{ENTER},34444,q,q,22270,{ENTER},{ENTER},34444,P+A-B-.avi,p,{ENTER}
14,try-14-1,4,q{ENTER},35231,q,q,22380,{ENTER},{ENTER},35231,P+A-B-.avi,p,{ENTER}
14,try-14-1,4,q{ENTER},34446,q,q,22378,{ENTER},{ENTER},34446,P+A-B-.avi,p,{ENTER}
14,try-14-1,4,q{ENTER},34126,q,q,22291,{ENTER},{ENTER},34126,P+A-B-.avi,p,{ENTER}
14,try-14-1,4,q{ENTER},34107,q,q,22759,{ENTER},{ENTER},34107,P+A-B-.avi,p,{ENTER}
14,try-14-1,4,q{ENTER},34290,q,q,22362,{ENTER},{ENTER},34290,P+A-B-.avi,p,{ENTER}
15,try-15-1,4,q{ENTER},35766,q,q,22610,{ENTER},{ENTER},35766,P+A-B-.avi,p,{ENTER}
15,try-15-1,4,q{ENTER},35267,q,q,22529,{ENTER},{ENTER},35267,P+A-B-.avi,p,{ENTER}
15,try-15-1,4,q{ENTER},35224,q,q,22573,{ENTER},{ENTER},35224,P+A-B-.avi,p,{ENTER}
15,try-15-1,4,q{ENTER},35595,q,q,22597,{ENTER},{ENTER},35595,P+A-B-.avi,p,{ENTER}
15,try-15-1,4,q{ENTER},34770,q,q,22834,{ENTER},{ENTER},34770,P+A-B-.avi,p,{ENTER}
16,try-16-1,4,q{ENTER},33809,q,q,22530,{ENTER},{ENTER},33809,P+A-B-.avi,p,{ENTER}
16,try-16-1,4,q{ENTER},34050,q,q,22429,{ENTER},{ENTER},34050,P+A-B-.avi,p,{ENTER}
16,try-16-1,4,q{ENTER},33869,q,q,22533,{ENTER},{ENTER},33869,P+A-B-.avi,p,{ENTER}
16,try-16-1,4,q{ENTER},33397,q,q,22270,{ENTER},{ENTER},33397,P+A-B-.avi,p,{ENTER}
16,try-16-1,4,q{ENTER},33554,q,q,22560,{ENTER},{ENTER},33554,P+A-B-.avi,p,{ENTER}
18,try-18-1,4,q{ENTER},34383,q,q,22401,{ENTER},{ENTER},34383,P+A-B-.avi,p,{ENTER}
18,try-18-1,4,q{ENTER},33941,q,q,22294,{ENTER},{ENTER},33941,P+A-B-.avi,p,{ENTER}
18,try-18-1,4,q{ENTER},33938,q,q,22465,{ENTER},{ENTER},33938,P+A-B-.avi,p,{ENTER}
18,try-18-1,4,q{ENTER},33542,q,q,22364,{ENTER},{ENTER},33542,P+A-B-.avi,p,{ENTER}
18,try-18-1,4,q{ENTER},33714,q,q,22348,{ENTER},{ENTER},33714,P+A-B-.avi,p,{ENTER}
19,try-19-1,4,q{ENTER},35660,q,q,22301,{ENTER},{ENTER},35660,P+A-B-.avi,p,{ENTER}
19,try-19-1,4,q{ENTER},37570,q,q,22356,{ENTER},{ENTER},37570,P+A-B-.avi,p,{ENTER}
19,try-19-1,4,q{ENTER},34828,q,q,22872,{ENTER},{ENTER},34828,P+A-B-.avi,p,{ENTER}
19,try-19-1,4,q{ENTER},34692,q,q,22293,{ENTER},{ENTER},34692,P+A-B-.avi,p,{ENTER}
2,try-02-1,4,q{ENTER},34692,q,q,22308,{ENTER},{ENTER},34692,P+A-B-.avi,p,{ENTER}
2,try-02-1,4,q{ENTER},34684,q,q,22400,{ENTER},{ENTER},34684,P+A-B-.avi,p,{ENTER}
2,try-02-1,4,q{ENTER},34687,q,q,22300,{ENTER},{ENTER},34687,P+A-B-.avi,p,{ENTER}
2,try-02-1,4,q{ENTER},34348,q,q,22295,{ENTER},{ENTER},34348,P+A-B-.avi,p,{ENTER}
2,try-02-1,4,q{ENTER},34314,q,q,22401,{ENTER},{ENTER},34314,P+A-B-.avi,p,{ENTER}
20,try-20-1,4,q{ENTER},34589,q,q,22310,{ENTER},{ENTER},34589,P+A-B-.avi,p,{ENTER}
20,try-20-1,4,q{ENTER},34880,q,q,22234,{ENTER},{ENTER},34880,P+A-B-.avi,p,{ENTER}
20,try-20-1,4,q{ENTER},34863,q,q,22237,{ENTER},{ENTER},34863,P+A-B-.avi,p,{ENTER}
20,try-20-1,4,q{ENTER},34622,q,q,22156,{ENTER},{ENTER},34622,P+A-B-.avi,p,{ENTER}
20,try-20-1,4,q{ENTER},34476,q,q,22135,{ENTER},{ENTER},34476,P+A-B-.avi,p,{ENTER}
3,try-03-1,4,q{ENTER},41041,q,q,22959,{ENTER},{ENTER},41041,P+A-B-.avi,p,{ENTER}
3,try-03-1,4,q{ENTER},40390,q,q,22182,{ENTER},{ENTER},40390,P+A-B-.avi,p,{ENTER}
3,try-03-1,4,q{ENTER},41338,q,q,22467,{ENTER},{ENTER},41338,P+A-B-.avi,p,{ENTER}
3,try-03-1,4,q{ENTER},38486,q,q,22326,{ENTER},{ENTER},38486,P+A-B-.avi,p,{ENTER}
3,try-03-1,4,q{ENTER},38150,q,q,22278,{ENTER},{ENTER},38150,P+A-B-.avi,p,{ENTER}
4,try-04-1,4,q{ENTER},34198,q,q,22260,{ENTER},{ENTER},34198,P+A-B-.avi,p,{ENTER}
4,try-04-1,4,q{ENTER},34063,q,q,22274,{ENTER},{ENTER},34063,P+A-B-.avi,p,{ENTER}
4,try-04-1,4,q{ENTER},34164,q,q,22279,{ENTER},{ENTER},34164,P+A-B-.avi,p,{ENTER}
4,try-04-1,4,q{ENTER},34066,q,q,22252,{ENTER},{ENTER},34066,P+A-B-.avi,p,{ENTER}
4,try-04-1,4,q{ENTER},34154,q,q,22159,{ENTER},{ENTER},34154,P+A-B-.avi,p,{ENTER}
5,try-5-1,4,q{ENTER},33794,q,q,22142,{ENTER},{ENTER},33794,P+A-B-.avi,p,{ENTER}
5,try-5-1,4,q{ENTER},33417,q,q,22132,{ENTER},{ENTER},33417,P+A-B-.avi,p,{ENTER}
5,try-5-1,4,q{ENTER},33774,q,q,22137,{ENTER},{ENTER},33774,P+A-B-.avi,p,{ENTER}
5,try-5-1,4,q{ENTER},33811,q,q,22166,{ENTER},{ENTER},33811,P+A-B-.avi,p,{ENTER}
6,try-6-1,4,q{ENTER},35259,q,q,22042,{ENTER},{ENTER},35259,P+A-B-.avi,p,{ENTER}
6,try-6-1,4,q{ENTER},34438,q,q,22151,{ENTER},{ENTER},34438,P+A-B-.avi,p,{ENTER}
6,try-6-1,4,q{ENTER},34466,q,q,22137,{ENTER},{ENTER},34466,P+A-B-.avi,p,{ENTER}
7,try-7-1,4,q{ENTER},33546,q,q,22475,{ENTER},{ENTER},33546,P+A-B-.avi,p,{ENTER}
7,try-7-1,4,q{ENTER},33381,q,q,22392,{ENTER},{ENTER},33381,P+A-B-.avi,p,{ENTER}
7,try-7-1,4,q{ENTER},33447,q,q,22313,{ENTER},{ENTER},33447,P+A-B-.avi,p,{ENTER}
7,try-7-1,4,q{ENTER},33499,q,q,22384,{ENTER},{ENTER},33499,P+A-B-.avi,p,{ENTER}
7,try-7-1,4,q{ENTER},33515,q,q,22324,{ENTER},{ENTER},33515,P+A-B-.avi,p,{ENTER}
8,try-8-1,4,q{ENTER},37892,q,q,22231,{ENTER},{ENTER},37892,P+A-B-.avi,p,{ENTER}
8,try-8-1,4,q{ENTER},36293,q,q,22455,{ENTER},{ENTER},36293,P+A-B-.avi,p,{ENTER}
8,try-8-1,4,q{ENTER},35184,q,q,22287,{ENTER},{ENTER},35184,P+A-B-.avi,p,{ENTER}
9,try-9-1,4,q{ENTER},36488,q,q,22559,{ENTER},{ENTER},36488,P+A-B-.avi,p,{ENTER}
9,try-9-1,4,q{ENTER},35468,q,q,22314,{ENTER},{ENTER},35468,P+A-B-.avi,p,{ENTER}
9,try-9-1,4,q{ENTER},35192,q,q,22316,{ENTER},{ENTER},35192,P+A-B-.avi,p,{ENTER}
5,try-5-1,4,qp,33413,q,q,22135,{ENTER},p,33413,P+A-B-.avi,p,{ENTER}
6,try-6-1,4,qp,33573,q,q,22237,{ENTER},p,33573,P+A-B-.avi,p,{ENTER}
6,try-6-1,4,qp,33312,q,q,22061,{ENTER},p,33312,P+A-B-.avi,p,{ENTER}
8,try-8-1,4,qp,33315,q,q,22289,{ENTER},p,33315,P+A-B-.avi,p,{ENTER}
8,try-8-1,4,qp,35013,q,q,22445,{ENTER},p,35013,P+A-B-.avi,p,{ENTER}
9,try-9-1,4,qp,33947,q,q,22241,{ENTER},p,33947,P+A-B-.avi,p,{ENTER}
17,try-017-1,4,qq,24350,q,q,20624,{ENTER},q,24350,P+A-B-.avi,p,{ENTER}
19,try-19-1,4,qq,28013,q,q,22138,{ENTER},q,28013,P+A-B-.avi,p,{ENTER}
9,try-9-1,4,qq,22407,q,q,3128,{ENTER},q,22407,P+A-B-.avi,p,{ENTER}
8,try-8-1,5,{ENTER},154,q,{ENTER},154,p,,,P-A+B+.avi,{ENTER},p
3,try-03-1,5,p{ENTER},38739,q,p,33517,p,{ENTER},38739,P-A+B+.avi,{ENTER},p
19,try-19-1,5,pq,16985,q,p,10624,p,q,16985,P-A+B+.avi,{ENTER},p
17,try-017-1,5,qp,33790,q,q,17816,p,p,33790,P-A+B+.avi,{ENTER},p
17,try-017-1,5,qp,33703,q,q,17492,p,p,33703,P-A+B+.avi,{ENTER},p
17,try-017-1,5,qp,34001,q,q,17682,p,p,34001,P-A+B+.avi,{ENTER},p
17,try-017-1,5,qp,33485,q,q,17895,p,p,33485,P-A+B+.avi,{ENTER},p
17,try-017-1,5,qp,34180,q,q,17784,p,p,34180,P-A+B+.avi,{ENTER},p
1,try-01-1,5,qp,34164,q,q,17747,p,p,34164,P-A+B+.avi,{ENTER},p
1,try-01-1,5,qp,33979,q,q,18030,p,p,33979,P-A+B+.avi,{ENTER},p
1,try-01-1,5,qp,33839,q,q,18024,p,p,33839,P-A+B+.avi,{ENTER},p
1,try-01-1,5,qp,33895,q,q,18263,p,p,33895,P-A+B+.avi,{ENTER},p
1,try-01-1,5,qp,34088,q,q,18353,p,p,34088,P-A+B+.avi,{ENTER},p
10,try-10-1,5,qp,33662,q,q,16829,p,p,33662,P-A+B+.avi,{ENTER},p
10,try-10-1,5,qp,33566,q,q,16976,p,p,33566,P-A+B+.avi,{ENTER},p
10,try-10-1,5,qp,33563,q,q,16619,p,p,33563,P-A+B+.avi,{ENTER},p
10,try-10-1,5,qp,33364,q,q,17174,p,p,33364,P-A+B+.avi,{ENTER},p
10,try-10-1,5,qp,33382,q,q,16960,p,p,33382,P-A+B+.avi,{ENTER},p
11,try-11-1,5,qp,33391,q,q,17453,p,p,33391,P-A+B+.avi,{ENTER},p
11,try-11-1,5,qp,33425,q,q,17435,p,p,33425,P-A+B+.avi,{ENTER},p
11,try-11-1,5,qp,33314,q,q,17372,p,p,33314,P-A+B+.avi,{ENTER},p
11,try-11-1,5,qp,33403,q,q,17309,p,p,33403,P-A+B+.avi,{ENTER},p
11,try-11-1,5,qp,33322,q,q,17309,p,p,33322,P-A+B+.avi,{ENTER},p
12,try-12-1,5,qp,33337,q,q,16757,p,p,33337,P-A+B+.avi,{ENTER},p
12,try-12-1,5,qp,33403,q,q,17136,p,p,33403,P-A+B+.avi,{ENTER},p
12,try-12-1,5,qp,33399,q,q,16975,p,p,33399,P-A+B+.avi,{ENTER},p
12,try-12-1,5,qp,33404,q,q,16845,p,p,33404,P-A+B+.avi,{ENTER},p
12,try-12-1,5,qp,33390,q,q,16827,p,p,33390,P-A+B+.avi,{ENTER},p
13,try-13-1,5,qp,33512,q,q,17181,p,p,33512,P-A+B+.avi,{ENTER},p
13,try-13-1,5,qp,33431,q,q,17133,p,p,33431,P-A+B+.avi,{ENTER},p
13,try-13-1,5,qp,33391,q,q,17116,p,p,33391,P-A+B+.avi,{ENTER},p
13,try-13-1,5,qp,33381,q,q,17130,p,p,33381,P-A+B+.avi,{ENTER},p
13,try-13-1,5,qp,33379,q,q,17307,p,p,33379,P-A+B+.avi,{ENTER},p
14,try-14-1,5,qp,33369,q,q,17348,p,p,33369,P-A+B+.avi,{ENTER},p
14,try-14-1,5,qp,33489,q,q,17097,p,p,33489,P-A+B+.avi,{ENTER},p
14,try-14-1,5,qp,33440,q,q,17541,p,p,33440,P-A+B+.avi,{ENTER},p
14,try-14-1,5,qp,33456,q,q,17423,p,p,33456,P-A+B+.avi,{ENTER},p
14,try-14-1,5,qp,33349,q,q,17007,p,p,33349,P-A+B+.avi,{ENTER},p
15,try-15-1,5,qp,33414,q,q,17378,p,p,33414,P-A+B+.avi,{ENTER},p
15,try-15-1,5,qp,33643,q,q,17478,p,p,33643,P-A+B+.avi,{ENTER},p
15,try-15-1,5,qp,33605,q,q,17362,p,p,33605,P-A+B+.avi,{ENTER},p
15,try-15-1,5,qp,33496,q,q,17346,p,p,33496,P-A+B+.avi,{ENTER},p
15,try-15-1,5,qp,33547,q,q,17356,p,p,33547,P-A+B+.avi,{ENTER},p
16,try-16-1,5,qp,33434,q,q,17257,p,p,33434,P-A+B+.avi,{ENTER},p
16,try-16-1,5,qp,33417,q,q,17265,p,p,33417,P-A+B+.avi,{ENTER},p
16,try-16-1,5,qp,33479,q,q,17393,p,p,33479,P-A+B+.avi,{ENTER},p
16,try-16-1,5,qp,33380,q,q,17252,p,p,33380,P-A+B+.avi,{ENTER},p
18,try-18-1,5,qp,33540,q,q,17453,p,p,33540,P-A+B+.avi,{ENTER},p
18,try-18-1,5,qp,33633,q,q,17283,p,p,33633,P-A+B+.avi,{ENTER},p
18,try-18-1,5,qp,33663,q,q,17292,p,p,33663,P-A+B+.avi,{ENTER},p
18,try-18-1,5,qp,33473,q,q,17266,p,p,33473,P-A+B+.avi,{ENTER},p
18,try-18-1,5,qp,33501,q,q,17431,p,p,33501,P-A+B+.avi,{ENTER},p
19,try-19-1,5,qp,33452,q,q,17016,p,p,33452,P-A+B+.avi,{ENTER},p
19,try-19-1,5,qp,33437,q,q,17056,p,p,33437,P-A+B+.avi,{ENTER},p
19,try-19-1,5,qp,33389,q,q,17213,p,p,33389,P-A+B+.avi,{ENTER},p
19,try-19-1,5,qp,33363,q,q,17005,p,p,33363,P-A+B+.avi,{ENTER},p
2,try-02-1,5,qp,33477,q,q,17255,p,p,33477,P-A+B+.avi,{ENTER},p
2,try-02-1,5,qp,33445,q,q,17346,p,p,33445,P-A+B+.avi,{ENTER},p
2,try-02-1,5,qp,33676,q,q,17264,p,p,33676,P-A+B+.avi,{ENTER},p
2,try-02-1,5,qp,33415,q,q,17224,p,p,33415,P-A+B+.avi,{ENTER},p
2,try-02-1,5,qp,33468,q,q,17306,p,p,33468,P-A+B+.avi,{ENTER},p
20,try-20-1,5,qp,33355,q,q,17112,p,p,33355,P-A+B+.avi,{ENTER},p
20,try-20-1,5,qp,33260,q,q,17078,p,p,33260,P-A+B+.avi,{ENTER},p
20,try-20-1,5,qp,33308,q,q,17146,p,p,33308,P-A+B+.avi,{ENTER},p
20,try-20-1,5,qp,33313,q,q,17179,p,p,33313,P-A+B+.avi,{ENTER},p
20,try-20-1,5,qp,33344,q,q,17101,p,p,33344,P-A+B+.avi,{ENTER},p
3,try-03-1,5,qp,33721,q,q,17131,p,p,33721,P-A+B+.avi,{ENTER},p
3,try-03-1,5,qp,33521,q,q,17667,p,p,33521,P-A+B+.avi,{ENTER},p
3,try-03-1,5,qp,33598,q,q,17197,p,p,33598,P-A+B+.avi,{ENTER},p
3,try-03-1,5,qp,33599,q,q,17395,p,p,33599,P-A+B+.avi,{ENTER},p
4,try-04-1,5,qp,33404,q,q,17204,p,p,33404,P-A+B+.avi,{ENTER},p
4,try-04-1,5,qp,33393,q,q,17192,p,p,33393,P-A+B+.avi,{ENTER},p
4,try-04-1,5,qp,33466,q,q,17221,p,p,33466,P-A+B+.avi,{ENTER},p
4,try-04-1,5,qp,33386,q,q,17200,p,p,33386,P-A+B+.avi,{ENTER},p
4,try-04-1,5,qp,33369,q,q,17223,p,p,33369,P-A+B+.avi,{ENTER},p
5,try-5-1,5,qp,33291,q,q,17006,p,p,33291,P-A+B+.avi,{ENTER},p
5,try-5-1,5,qp,33348,q,q,17011,p,p,33348,P-A+B+.avi,{ENTER},p
5,try-5-1,5,qp,33386,q,q,17043,p,p,33386,P-A+B+.avi,{ENTER},p
5,try-5-1,5,qp,33325,q,q,17046,p,p,33325,P-A+B+.avi,{ENTER},p
5,try-5-1,5,qp,33355,q,q,17205,p,p,33355,P-A+B+.avi,{ENTER},p
6,try-6-1,5,qp,33424,q,q,17146,p,p,33424,P-A+B+.avi,{ENTER},p
6,try-6-1,5,qp,33417,q,q,17195,p,p,33417,P-A+B+.avi,{ENTER},p
6,try-6-1,5,qp,33402,q,q,17050,p,p,33402,P-A+B+.avi,{ENTER},p
6,try-6-1,5,qp,33290,q,q,17122,p,p,33290,P-A+B+.avi,{ENTER},p
6,try-6-1,5,qp,33397,q,q,16989,p,p,33397,P-A+B+.avi,{ENTER},p
7,try-7-1,5,qp,33406,q,q,17496,p,p,33406,P-A+B+.avi,{ENTER},p
7,try-7-1,5,qp,33385,q,q,17232,p,p,33385,P-A+B+.avi,{ENTER},p
7,try-7-1,5,qp,33348,q,q,17226,p,p,33348,P-A+B+.avi,{ENTER},p
7,try-7-1,5,qp,33466,q,q,17229,p,p,33466,P-A+B+.avi,{ENTER},p
7,try-7-1,5,qp,33411,q,q,17212,p,p,33411,P-A+B+.avi,{ENTER},p
8,try-8-1,5,qp,33375,q,q,17237,p,p,33375,P-A+B+.avi,{ENTER},p
8,try-8-1,5,qp,33358,q,q,17037,p,p,33358,P-A+B+.avi,{ENTER},p
8,try-8-1,5,qp,33506,q,q,17258,p,p,33506,P-A+B+.avi,{ENTER},p
8,try-8-1,5,qp,33400,q,q,17315,p,p,33400,P-A+B+.avi,{ENTER},p
9,try-9-1,5,qp,33459,q,q,17016,p,p,33459,P-A+B+.avi,{ENTER},p
9,try-9-1,5,qp,33758,q,q,17063,p,p,33758,P-A+B+.avi,{ENTER},p
9,try-9-1,5,qp,33457,q,q,17170,p,p,33457,P-A+B+.avi,{ENTER},p
9,try-9-1,5,qp,33425,q,q,17178,p,p,33425,P-A+B+.avi,{ENTER},p
9,try-9-1,5,qp,33583,q,q,17200,p,p,33583,P-A+B+.avi,{ENTER},p
16,try-16-1,5,qq,17279,q,q,11595,p,q,17279,P-A+B+.avi,{ENTER},p
17,try-017-1,6,q{ENTER},35180,q,q,17612,{ENTER},{ENTER},35180,P-A+B-.avi,{ENTER},p
17,try-017-1,6,q{ENTER},35156,q,q,18151,{ENTER},{ENTER},35156,P-A+B-.avi,{ENTER},p
17,try-017-1,6,q{ENTER},35611,q,q,17602,{ENTER},{ENTER},35611,P-A+B-.avi,{ENTER},p
17,try-017-1,6,q{ENTER},35040,q,q,22849,{ENTER},{ENTER},35040,P-A+B-.avi,{ENTER},p
17,try-017-1,6,q{ENTER},36392,q,q,18106,{ENTER},{ENTER},36392,P-A+B-.avi,{ENTER},p
1,try-01-1,6,q{ENTER},34176,q,q,18096,{ENTER},{ENTER},34176,P-A+B-.avi,{ENTER},p
1,try-01-1,6,q{ENTER},33715,q,q,18607,{ENTER},{ENTER},33715,P-A+B-.avi,{ENTER},p
1,try-01-1,6,q{ENTER},33815,q,q,18190,{ENTER},{ENTER},33815,P-A+B-.avi,{ENTER},p
1,try-01-1,6,q{ENTER},33987,q,q,18518,{ENTER},{ENTER},33987,P-A+B-.avi,{ENTER},p
1,try-01-1,6,q{ENTER},33636,q,q,18018,{ENTER},{ENTER},33636,P-A+B-.avi,{ENTER},p
10,try-10-1,6,q{ENTER},34448,q,q,17071,{ENTER},{ENTER},34448,P-A+B-.avi,{ENTER},p
10,try-10-1,6,q{ENTER},33830,q,q,16984,{ENTER},{ENTER},33830,P-A+B-.avi,{ENTER},p
10,try-10-1,6,q{ENTER},33496,q,q,17214,{ENTER},{ENTER},33496,P-A+B-.avi,{ENTER},p
10,try-10-1,6,q{ENTER},33384,q,q,16943,{ENTER},{ENTER},33384,P-A+B-.avi,{ENTER},p
10,try-10-1,6,q{ENTER},33304,q,q,16952,{ENTER},{ENTER},33304,P-A+B-.avi,{ENTER},p
11,try-11-1,6,q{ENTER},34245,q,q,17443,{ENTER},{ENTER},34245,P-A+B-.avi,{ENTER},p
11,try-11-1,6,q{ENTER},34035,q,q,17621,{ENTER},{ENTER},34035,P-A+B-.avi,{ENTER},p
11,try-11-1,6,q{ENTER},34011,q,q,17339,{ENTER},{ENTER},34011,P-A+B-.avi,{ENTER},p
11,try-11-1,6,q{ENTER},34035,q,q,17309,{ENTER},{ENTER},34035,P-A+B-.avi,{ENTER},p
11,try-11-1,6,q{ENTER},33455,q,q,17651,{ENTER},{ENTER},33455,P-A+B-.avi,{ENTER},p
12,try-12-1,6,q{ENTER},34554,q,q,16972,{ENTER},{ENTER},34554,P-A+B-.avi,{ENTER},p
12,try-12-1,6,q{ENTER},35008,q,q,16826,{ENTER},{ENTER},35008,P-A+B-.avi,{ENTER},p
12,try-12-1,6,q{ENTER},34910,q,q,17006,{ENTER},{ENTER},34910,P-A+B-.avi,{ENTER},p
12,try-12-1,6,q{ENTER},34600,q,q,16996,{ENTER},{ENTER},34600,P-A+B-.avi,{ENTER},p
12,try-12-1,6,q{ENTER},35159,q,q,16888,{ENTER},{ENTER},35159,P-A+B-.avi,{ENTER},p
13,try-13-1,6,q{ENTER},34603,q,q,17237,{ENTER},{ENTER},34603,P-A+B-.avi,{ENTER},p
13,try-13-1,6,q{ENTER},34361,q,q,17118,{ENTER},{ENTER},34361,P-A+B-.avi,{ENTER},p
13,try-13-1,6,q{ENTER},34359,q,q,17241,{ENTER},{ENTER},34359,P-A+B-.avi,{ENTER},p
13,try-13-1,6,q{ENTER},34463,q,q,17720,{ENTER},{ENTER},34463,P-A+B-.avi,{ENTER},p
13,try-13-1,6,q{ENTER},34418,q,q,17238,{ENTER},{ENTER},34418,P-A+B-.avi,{ENTER},p
14,try-14-1,6,q{ENTER},35170,q,q,17433,{ENTER},{ENTER},35170,P-A+B-.avi,{ENTER},p
14,try-14-1,6,q{ENTER},34725,q,q,17516,{ENTER},{ENTER},34725,P-A+B-.avi,{ENTER},p
14,try-14-1,6,q{ENTER},34384,q,q,17637,{ENTER},{ENTER},34384,P-A+B-.avi,{ENTER},p
14,try-14-1,6,q{ENTER},34056,q,q,17224,{ENTER},{ENTER},34056,P-A+B-.avi,{ENTER},p
14,try-14-1,6,q{ENTER},33959,q,q,17175,{ENTER},{ENTER},33959,P-A+B-.avi,{ENTER},p
15,try-15-1,6,q{ENTER},36114,q,q,17282,{ENTER},{ENTER},36114,P-A+B-.avi,{ENTER},p
15,try-15-1,6,q{ENTER},35341,q,q,17349,{ENTER},{ENTER},35341,P-A+B-.avi,{ENTER},p
15,try-15-1,6,q{ENTER},35219,q,q,17408,{ENTER},{ENTER},35219,P-A+B-.avi,{ENTER},p
15,try-15-1,6,q{ENTER},35244,q,q,17474,{ENTER},{ENTER},35244,P-A+B-.avi,{ENTER},p
15,try-15-1,6,q{ENTER},35409,q,q,17778,{ENTER},{ENTER},35409,P-A+B-.avi,{ENTER},p
16,try-16-1,6,q{ENTER},33971,q,q,17067,{ENTER},{ENTER},33971,P-A+B-.avi,{ENTER},p
16,try-16-1,6,q{ENTER},33516,q,q,17274,{ENTER},{ENTER},33516,P-A+B-.avi,{ENTER},p
16,try-16-1,6,q{ENTER},33487,q,q,17274,{ENTER},{ENTER},33487,P-A+B-.avi,{ENTER},p
16,try-16-1,6,q{ENTER},33916,q,q,17403,{ENTER},{ENTER},33916,P-A+B-.avi,{ENTER},p
16,try-16-1,6,q{ENTER},33905,q,q,17484,{ENTER},{ENTER},33905,P-A+B-.avi,{ENTER},p
18,try-18-1,6,q{ENTER},33682,q,q,17281,{ENTER},{ENTER},33682,P-A+B-.avi,{ENTER},p
18,try-18-1,6,q{ENTER},33680,q,q,17310,{ENTER},{ENTER},33680,P-A+B-.avi,{ENTER},p
18,try-18-1,6,q{ENTER},33539,q,q,17365,{ENTER},{ENTER},33539,P-A+B-.avi,{ENTER},p
18,try-18-1,6,q{ENTER},33580,q,q,17273,{ENTER},{ENTER},33580,P-A+B-.avi,{ENTER},p
18,try-18-1,6,q{ENTER},33508,q,q,17354,{ENTER},{ENTER},33508,P-A+B-.avi,{ENTER},p
19,try-19-1,6,q{ENTER},35240,q,q,17199,{ENTER},{ENTER},35240,P-A+B-.avi,{ENTER},p
19,try-19-1,6,q{ENTER},35179,q,q,17466,{ENTER},{ENTER},35179,P-A+B-.avi,{ENTER},p
19,try-19-1,6,q{ENTER},35030,q,q,17541,{ENTER},{ENTER},35030,P-A+B-.avi,{ENTER},p
19,try-19-1,6,q{ENTER},35021,q,q,17038,{ENTER},{ENTER},35021,P-A+B-.avi,{ENTER},p
19,try-19-1,6,q{ENTER},34419,q,q,17116,{ENTER},{ENTER},34419,P-A+B-.avi,{ENTER},p
2,try-02-1,6,q{ENTER},34485,q,q,17258,{ENTER},{ENTER},34485,P-A+B-.avi,{ENTER},p
2,try-02-1,6,q{ENTER},34380,q,q,17378,{ENTER},{ENTER},34380,P-A+B-.avi,{ENTER},p
2,try-02-1,6,q{ENTER},34149,q,q,17253,{ENTER},{ENTER},34149,P-A+B-.avi,{ENTER},p
2,try-02-1,6,q{ENTER},34377,q,q,17256,{ENTER},{ENTER},34377,P-A+B-.avi,{ENTER},p
2,try-02-1,6,q{ENTER},34240,q,q,17443,{ENTER},{ENTER},34240,P-A+B-.avi,{ENTER},p
20,try-20-1,6,q{ENTER},35356,q,q,17009,{ENTER},{ENTER},35356,P-A+B-.avi,{ENTER},p
20,try-20-1,6,q{ENTER},34968,q,q,17038,{ENTER},{ENTER},34968,P-A+B-.avi,{ENTER},p
20,try-20-1,6,q{ENTER},34532,q,q,17173,{ENTER},{ENTER},34532,P-A+B-.avi,{ENTER},p
20,try-20-1,6,q{ENTER},34909,q,q,17036,{ENTER},{ENTER},34909,P-A+B-.avi,{ENTER},p
20,try-20-1,6,q{ENTER},34730,q,q,17208,{ENTER},{ENTER},34730,P-A+B-.avi,{ENTER},p
3,try-03-1,6,q{ENTER},39725,q,q,17147,{ENTER},{ENTER},39725,P-A+B-.avi,{ENTER},p
3,try-03-1,6,q{ENTER},39844,q,q,17264,{ENTER},{ENTER},39844,P-A+B-.avi,{ENTER},p
3,try-03-1,6,q{ENTER},38877,q,q,17091,{ENTER},{ENTER},38877,P-A+B-.avi,{ENTER},p
3,try-03-1,6,q{ENTER},37093,q,q,17137,{ENTER},{ENTER},37093,P-A+B-.avi,{ENTER},p
3,try-03-1,6,q{ENTER},36714,q,q,17343,{ENTER},{ENTER},36714,P-A+B-.avi,{ENTER},p
4,try-04-1,6,q{ENTER},34228,q,q,17201,{ENTER},{ENTER},34228,P-A+B-.avi,{ENTER},p
4,try-04-1,6,q{ENTER},34335,q,q,17230,{ENTER},{ENTER},34335,P-A+B-.avi,{ENTER},p
4,try-04-1,6,q{ENTER},34109,q,q,17186,{ENTER},{ENTER},34109,P-A+B-.avi,{ENTER},p
4,try-04-1,6,q{ENTER},34426,q,q,17100,{ENTER},{ENTER},34426,P-A+B-.avi,{ENTER},p
4,try-04-1,6,q{ENTER},34137,q,q,17106,{ENTER},{ENTER},34137,P-A+B-.avi,{ENTER},p
5,try-5-1,6,q{ENTER},33832,q,q,16988,{ENTER},{ENTER},33832,P-A+B-.avi,{ENTER},p
5,try-5-1,6,q{ENTER},33948,q,q,17088,{ENTER},{ENTER},33948,P-A+B-.avi,{ENTER},p
5,try-5-1,6,q{ENTER},34101,q,q,17024,{ENTER},{ENTER},34101,P-A+B-.avi,{ENTER},p
5,try-5-1,6,q{ENTER},33835,q,q,17103,{ENTER},{ENTER},33835,P-A+B-.avi,{ENTER},p
5,try-5-1,6,q{ENTER},33704,q,q,17069,{ENTER},{ENTER},33704,P-A+B-.avi,{ENTER},p
6,try-6-1,6,q{ENTER},34614,q,q,17132,{ENTER},{ENTER},34614,P-A+B-.avi,{ENTER},p
6,try-6-1,6,q{ENTER},34471,q,q,17074,{ENTER},{ENTER},34471,P-A+B-.avi,{ENTER},p
6,try-6-1,6,q{ENTER},34496,q,q,17102,{ENTER},{ENTER},34496,P-A+B-.avi,{ENTER},p
6,try-6-1,6,q{ENTER},34707,q,q,17128,{ENTER},{ENTER},34707,P-A+B-.avi,{ENTER},p
6,try-6-1,6,q{ENTER},34511,q,q,17112,{ENTER},{ENTER},34511,P-A+B-.avi,{ENTER},p
7,try-7-1,6,q{ENTER},33443,q,q,17225,{ENTER},{ENTER},33443,P-A+B-.avi,{ENTER},p
7,try-7-1,6,q{ENTER},33733,q,q,17199,{ENTER},{ENTER},33733,P-A+B-.avi,{ENTER},p
7,try-7-1,6,q{ENTER},33758,q,q,17214,{ENTER},{ENTER},33758,P-A+B-.avi,{ENTER},p
7,try-7-1,6,q{ENTER},33607,q,q,17238,{ENTER},{ENTER},33607,P-A+B-.avi,{ENTER},p
7,try-7-1,6,q{ENTER},33437,q,q,17218,{ENTER},{ENTER},33437,P-A+B-.avi,{ENTER},p
8,try-8-1,6,q{ENTER},36129,q,q,17243,{ENTER},{ENTER},36129,P-A+B-.avi,{ENTER},p
8,try-8-1,6,q{ENTER},35949,q,q,17094,{ENTER},{ENTER},35949,P-A+B-.avi,{ENTER},p
8,try-8-1,6,q{ENTER},36356,q,q,17182,{ENTER},{ENTER},36356,P-A+B-.avi,{ENTER},p
8,try-8-1,6,q{ENTER},35784,q,q,17272,{ENTER},{ENTER},35784,P-A+B-.avi,{ENTER},p
8,try-8-1,6,q{ENTER},35684,q,q,17233,{ENTER},{ENTER},35684,P-A+B-.avi,{ENTER},p
9,try-9-1,6,q{ENTER},41689,q,q,17037,{ENTER},{ENTER},41689,P-A+B-.avi,{ENTER},p
9,try-9-1,6,q{ENTER},35239,q,q,17202,{ENTER},{ENTER},35239,P-A+B-.avi,{ENTER},p
9,try-9-1,6,q{ENTER},35733,q,q,17126,{ENTER},{ENTER},35733,P-A+B-.avi,{ENTER},p
9,try-9-1,6,q{ENTER},36083,q,q,17172,{ENTER},{ENTER},36083,P-A+B-.avi,{ENTER},p
9,try-9-1,6,q{ENTER},35041,q,q,17650,{ENTER},{ENTER},35041,P-A+B-.avi,{ENTER},p
3,try-03-1,7,{ENTER},37903,q,{ENTER},37903,{ENTER},,,P-A-B-.avi,{ENTER},{ENTER}
17,try-017-1,7,q{ENTER},36865,q,q,28666,{ENTER},{ENTER},36865,P-A-B-.avi,{ENTER},{ENTER}
17,try-017-1,7,q{ENTER},36621,q,q,28866,{ENTER},{ENTER},36621,P-A-B-.avi,{ENTER},{ENTER}
17,try-017-1,7,q{ENTER},35485,q,q,29003,{ENTER},{ENTER},35485,P-A-B-.avi,{ENTER},{ENTER}
17,try-017-1,7,q{ENTER},35749,q,q,29029,{ENTER},{ENTER},35749,P-A-B-.avi,{ENTER},{ENTER}
17,try-017-1,7,q{ENTER},34818,q,q,28606,{ENTER},{ENTER},34818,P-A-B-.avi,{ENTER},{ENTER}
1,try-01-1,7,q{ENTER},34224,q,q,28638,{ENTER},{ENTER},34224,P-A-B-.avi,{ENTER},{ENTER}
1,try-01-1,7,q{ENTER},34340,q,q,29041,{ENTER},{ENTER},34340,P-A-B-.avi,{ENTER},{ENTER}
1,try-01-1,7,q{ENTER},33915,q,q,29107,{ENTER},{ENTER},33915,P-A-B-.avi,{ENTER},{ENTER}
1,try-01-1,7,q{ENTER},33692,q,q,29094,{ENTER},{ENTER},33692,P-A-B-.avi,{ENTER},{ENTER}
1,try-01-1,7,q{ENTER},33592,q,q,28936,{ENTER},{ENTER},33592,P-A-B-.avi,{ENTER},{ENTER}
10,try-10-1,7,q{ENTER},34409,q,q,28141,{ENTER},{ENTER},34409,P-A-B-.avi,{ENTER},{ENTER}
10,try-10-1,7,q{ENTER},34238,q,q,28191,{ENTER},{ENTER},34238,P-A-B-.avi,{ENTER},{ENTER}
10,try-10-1,7,q{ENTER},33553,q,q,27894,{ENTER},{ENTER},33553,P-A-B-.avi,{ENTER},{ENTER}
11,try-11-1,7,q{ENTER},35438,q,q,28283,{ENTER},{ENTER},35438,P-A-B-.avi,{ENTER},{ENTER}
11,try-11-1,7,q{ENTER},34430,q,q,28425,{ENTER},{ENTER},34430,P-A-B-.avi,{ENTER},{ENTER}
11,try-11-1,7,q{ENTER},34177,q,q,28434,{ENTER},{ENTER},34177,P-A-B-.avi,{ENTER},{ENTER}
11,try-11-1,7,q{ENTER},34612,q,q,28963,{ENTER},{ENTER},34612,P-A-B-.avi,{ENTER},{ENTER}
12,try-12-1,7,q{ENTER},35239,q,q,28097,{ENTER},{ENTER},35239,P-A-B-.avi,{ENTER},{ENTER}
12,try-12-1,7,q{ENTER},35355,q,q,28094,{ENTER},{ENTER},35355,P-A-B-.avi,{ENTER},{ENTER}
12,try-12-1,7,q{ENTER},34858,q,q,27391,{ENTER},{ENTER},34858,P-A-B-.avi,{ENTER},{ENTER}
12,try-12-1,7,q{ENTER},34586,q,q,27463,{ENTER},{ENTER},34586,P-A-B-.avi,{ENTER},{ENTER}
12,try-12-1,7,q{ENTER},34960,q,q,28007,{ENTER},{ENTER},34960,P-A-B-.avi,{ENTER},{ENTER}
13,try-13-1,7,q{ENTER},35314,q,q,28080,{ENTER},{ENTER},35314,P-A-B-.avi,{ENTER},{ENTER}
13,try-13-1,7,q{ENTER},34655,q,q,28523,{ENTER},{ENTER},34655,P-A-B-.avi,{ENTER},{ENTER}
13,try-13-1,7,q{ENTER},34916,q,q,28106,{ENTER},{ENTER},34916,P-A-B-.avi,{ENTER},{ENTER}
13,try-13-1,7,q{ENTER},34870,q,q,28176,{ENTER},{ENTER},34870,P-A-B-.avi,{ENTER},{ENTER}
14,try-14-1,7,q{ENTER},35652,q,q,28241,{ENTER},{ENTER},35652,P-A-B-.avi,{ENTER},{ENTER}
14,try-14-1,7,q{ENTER},35057,q,q,28737,{ENTER},{ENTER},35057,P-A-B-.avi,{ENTER},{ENTER}
14,try-14-1,7,q{ENTER},34746,q,q,28232,{ENTER},{ENTER},34746,P-A-B-.avi,{ENTER},{ENTER}
14,try-14-1,7,q{ENTER},34114,q,q,28169,{ENTER},{ENTER},34114,P-A-B-.avi,{ENTER},{ENTER}
15,try-15-1,7,q{ENTER},36092,q,q,28488,{ENTER},{ENTER},36092,P-A-B-.avi,{ENTER},{ENTER}
15,try-15-1,7,q{ENTER},35750,q,q,28607,{ENTER},{ENTER},35750,P-A-B-.avi,{ENTER},{ENTER}
15,try-15-1,7,q{ENTER},35613,q,q,28627,{ENTER},{ENTER},35613,P-A-B-.avi,{ENTER},{ENTER}
15,try-15-1,7,q{ENTER},35428,q,q,28529,{ENTER},{ENTER},35428,P-A-B-.avi,{ENTER},{ENTER}
16,try-16-1,7,q{ENTER},34935,q,q,28286,{ENTER},{ENTER},34935,P-A-B-.avi,{ENTER},{ENTER}
16,try-16-1,7,q{ENTER},34156,q,q,28397,{ENTER},{ENTER},34156,P-A-B-.avi,{ENTER},{ENTER}
16,try-16-1,7,q{ENTER},33935,q,q,28397,{ENTER},{ENTER},33935,P-A-B-.avi,{ENTER},{ENTER}
16,try-16-1,7,q{ENTER},33862,q,q,28493,{ENTER},{ENTER},33862,P-A-B-.avi,{ENTER},{ENTER}
16,try-16-1,7,q{ENTER},33886,q,q,28465,{ENTER},{ENTER},33886,P-A-B-.avi,{ENTER},{ENTER}
18,try-18-1,7,q{ENTER},34113,q,q,28346,{ENTER},{ENTER},34113,P-A-B-.avi,{ENTER},{ENTER}
18,try-18-1,7,q{ENTER},33820,q,q,28278,{ENTER},{ENTER},33820,P-A-B-.avi,{ENTER},{ENTER}
18,try-18-1,7,q{ENTER},34239,q,q,28502,{ENTER},{ENTER},34239,P-A-B-.avi,{ENTER},{ENTER}
18,try-18-1,7,q{ENTER},33712,q,q,28297,{ENTER},{ENTER},33712,P-A-B-.avi,{ENTER},{ENTER}
18,try-18-1,7,q{ENTER},33724,q,q,28513,{ENTER},{ENTER},33724,P-A-B-.avi,{ENTER},{ENTER}
19,try-19-1,7,q{ENTER},35897,q,q,28060,{ENTER},{ENTER},35897,P-A-B-.avi,{ENTER},{ENTER}
19,try-19-1,7,q{ENTER},35184,q,q,28247,{ENTER},{ENTER},35184,P-A-B-.avi,{ENTER},{ENTER}
19,try-19-1,7,q{ENTER},34990,q,q,28087,{ENTER},{ENTER},34990,P-A-B-.avi,{ENTER},{ENTER}
19,try-19-1,7,q{ENTER},34556,q,q,28164,{ENTER},{ENTER},34556,P-A-B-.avi,{ENTER},{ENTER}
19,try-19-1,7,q{ENTER},34491,q,q,28095,{ENTER},{ENTER},34491,P-A-B-.avi,{ENTER},{ENTER}
2,try-02-1,7,q{ENTER},34723,q,q,28483,{ENTER},{ENTER},34723,P-A-B-.avi,{ENTER},{ENTER}
2,try-02-1,7,q{ENTER},34369,q,q,28232,{ENTER},{ENTER},34369,P-A-B-.avi,{ENTER},{ENTER}
2,try-02-1,7,q{ENTER},34398,q,q,28324,{ENTER},{ENTER},34398,P-A-B-.avi,{ENTER},{ENTER}
2,try-02-1,7,q{ENTER},34327,q,q,28334,{ENTER},{ENTER},34327,P-A-B-.avi,{ENTER},{ENTER}
2,try-02-1,7,q{ENTER},34021,q,q,28323,{ENTER},{ENTER},34021,P-A-B-.avi,{ENTER},{ENTER}
20,try-20-1,7,q{ENTER},35220,q,q,28120,{ENTER},{ENTER},35220,P-A-B-.avi,{ENTER},{ENTER}
20,try-20-1,7,q{ENTER},35866,q,q,28221,{ENTER},{ENTER},35866,P-A-B-.avi,{ENTER},{ENTER}
20,try-20-1,7,q{ENTER},34514,q,q,28209,{ENTER},{ENTER},34514,P-A-B-.avi,{ENTER},{ENTER}
20,try-20-1,7,q{ENTER},34753,q,q,28161,{ENTER},{ENTER},34753,P-A-B-.avi,{ENTER},{ENTER}
20,try-20-1,7,q{ENTER},34736,q,q,28124,{ENTER},{ENTER},34736,P-A-B-.avi,{ENTER},{ENTER}
3,try-03-1,7,q{ENTER},40990,q,q,28906,{ENTER},{ENTER},40990,P-A-B-.avi,{ENTER},{ENTER}
3,try-03-1,7,q{ENTER},38479,q,q,28242,{ENTER},{ENTER},38479,P-A-B-.avi,{ENTER},{ENTER}
3,try-03-1,7,q{ENTER},39132,q,q,28367,{ENTER},{ENTER},39132,P-A-B-.avi,{ENTER},{ENTER}
3,try-03-1,7,q{ENTER},36976,q,q,28198,{ENTER},{ENTER},36976,P-A-B-.avi,{ENTER},{ENTER}
4,try-04-1,7,q{ENTER},34235,q,q,28185,{ENTER},{ENTER},34235,P-A-B-.avi,{ENTER},{ENTER}
4,try-04-1,7,q{ENTER},34037,q,q,28262,{ENTER},{ENTER},34037,P-A-B-.avi,{ENTER},{ENTER}
4,try-04-1,7,q{ENTER},34012,q,q,28324,{ENTER},{ENTER},34012,P-A-B-.avi,{ENTER},{ENTER}
4,try-04-1,7,q{ENTER},34045,q,q,28143,{ENTER},{ENTER},34045,P-A-B-.avi,{ENTER},{ENTER}
4,try-04-1,7,q{ENTER},34334,q,q,28261,{ENTER},{ENTER},34334,P-A-B-.avi,{ENTER},{ENTER}
5,try-5-1,7,q{ENTER},33946,q,q,28039,{ENTER},{ENTER},33946,P-A-B-.avi,{ENTER},{ENTER}
5,try-5-1,7,q{ENTER},34075,q,q,28206,{ENTER},{ENTER},34075,P-A-B-.avi,{ENTER},{ENTER}
5,try-5-1,7,q{ENTER},33715,q,q,28149,{ENTER},{ENTER},33715,P-A-B-.avi,{ENTER},{ENTER}
5,try-5-1,7,q{ENTER},33769,q,q,28209,{ENTER},{ENTER},33769,P-A-B-.avi,{ENTER},{ENTER}
5,try-5-1,7,q{ENTER},33698,q,q,27525,{ENTER},{ENTER},33698,P-A-B-.avi,{ENTER},{ENTER}
6,try-6-1,7,q{ENTER},34970,q,q,28231,{ENTER},{ENTER},34970,P-A-B-.avi,{ENTER},{ENTER}
6,try-6-1,7,q{ENTER},35204,q,q,28131,{ENTER},{ENTER},35204,P-A-B-.avi,{ENTER},{ENTER}
6,try-6-1,7,q{ENTER},34902,q,q,28137,{ENTER},{ENTER},34902,P-A-B-.avi,{ENTER},{ENTER}
6,try-6-1,7,q{ENTER},35621,q,q,28206,{ENTER},{ENTER},35621,P-A-B-.avi,{ENTER},{ENTER}
6,try-6-1,7,q{ENTER},34220,q,q,28110,{ENTER},{ENTER},34220,P-A-B-.avi,{ENTER},{ENTER}
7,try-7-1,7,q{ENTER},33661,q,q,28315,{ENTER},{ENTER},33661,P-A-B-.avi,{ENTER},{ENTER}
7,try-7-1,7,q{ENTER},33518,q,q,28306,{ENTER},{ENTER},33518,P-A-B-.avi,{ENTER},{ENTER}
7,try-7-1,7,q{ENTER},33598,q,q,28258,{ENTER},{ENTER},33598,P-A-B-.avi,{ENTER},{ENTER}
7,try-7-1,7,q{ENTER},33930,q,q,28357,{ENTER},{ENTER},33930,P-A-B-.avi,{ENTER},{ENTER}
7,try-7-1,7,q{ENTER},33748,q,q,28241,{ENTER},{ENTER},33748,P-A-B-.avi,{ENTER},{ENTER}
8,try-8-1,7,q{ENTER},36405,q,q,28220,{ENTER},{ENTER},36405,P-A-B-.avi,{ENTER},{ENTER}
8,try-8-1,7,q{ENTER},39151,q,q,28298,{ENTER},{ENTER},39151,P-A-B-.avi,{ENTER},{ENTER}
8,try-8-1,7,q{ENTER},36487,q,q,28380,{ENTER},{ENTER},36487,P-A-B-.avi,{ENTER},{ENTER}
8,try-8-1,7,q{ENTER},35380,q,q,28271,{ENTER},{ENTER},35380,P-A-B-.avi,{ENTER},{ENTER}
8,try-8-1,7,q{ENTER},34588,q,q,28348,{ENTER},{ENTER},34588,P-A-B-.avi,{ENTER},{ENTER}
9,try-9-1,7,q{ENTER},35197,q,q,28144,{ENTER},{ENTER},35197,P-A-B-.avi,{ENTER},{ENTER}
9,try-9-1,7,q{ENTER},34898,q,q,28094,{ENTER},{ENTER},34898,P-A-B-.avi,{ENTER},{ENTER}
9,try-9-1,7,q{ENTER},34875,q,q,28209,{ENTER},{ENTER},34875,P-A-B-.avi,{ENTER},{ENTER}
9,try-9-1,7,q{ENTER},35512,q,q,28201,{ENTER},{ENTER},35512,P-A-B-.avi,{ENTER},{ENTER}
9,try-9-1,7,q{ENTER},35072,q,q,28225,{ENTER},{ENTER},35072,P-A-B-.avi,{ENTER},{ENTER}
10,try-10-1,7,qp,33723,q,q,28068,{ENTER},p,33723,P-A-B-.avi,{ENTER},{ENTER}
10,try-10-1,7,qp,33524,q,q,28091,{ENTER},p,33524,P-A-B-.avi,{ENTER},{ENTER}
11,try-11-1,7,qp,33386,q,q,28641,{ENTER},p,33386,P-A-B-.avi,{ENTER},{ENTER}
14,try-14-1,7,qp,34044,q,q,28525,{ENTER},p,34044,P-A-B-.avi,{ENTER},{ENTER}
15,try-15-1,7,qp,33647,q,q,28443,{ENTER},p,33647,P-A-B-.avi,{ENTER},{ENTER}
13,try-13-1,7,qq,28137,q,q,26541,{ENTER},q,28137,P-A-B-.avi,{ENTER},{ENTER}
17,try-017-1,8,qp,33554,q,q,29034,p,p,33554,P-A-B+.avi,{ENTER},{ENTER}
17,try-017-1,8,qp,34072,q,q,29644,p,p,34072,P-A-B+.avi,{ENTER},{ENTER}
17,try-017-1,8,qp,33764,q,q,28747,p,p,33764,P-A-B+.avi,{ENTER},{ENTER}
17,try-017-1,8,qp,34003,q,q,28844,p,p,34003,P-A-B+.avi,{ENTER},{ENTER}
17,try-017-1,8,qp,34422,q,q,28951,p,p,34422,P-A-B+.avi,{ENTER},{ENTER}
1,try-01-1,8,qp,33926,q,q,29329,p,p,33926,P-A-B+.avi,{ENTER},{ENTER}
1,try-01-1,8,qp,33736,q,q,29203,p,p,33736,P-A-B+.avi,{ENTER},{ENTER}
1,try-01-1,8,qp,33924,q,q,29183,p,p,33924,P-A-B+.avi,{ENTER},{ENTER}
1,try-01-1,8,qp,33981,q,q,29182,p,p,33981,P-A-B+.avi,{ENTER},{ENTER}
1,try-01-1,8,qp,33942,q,q,29320,p,p,33942,P-A-B+.avi,{ENTER},{ENTER}
10,try-10-1,8,qp,34776,q,q,28036,p,p,34776,P-A-B+.avi,{ENTER},{ENTER}
10,try-10-1,8,qp,33562,q,q,27905,p,p,33562,P-A-B+.avi,{ENTER},{ENTER}
10,try-10-1,8,qp,33385,q,q,27540,p,p,33385,P-A-B+.avi,{ENTER},{ENTER}
10,try-10-1,8,qp,33361,q,q,28085,p,p,33361,P-A-B+.avi,{ENTER},{ENTER}
10,try-10-1,8,qp,33641,q,q,27364,p,p,33641,P-A-B+.avi,{ENTER},{ENTER}
11,try-11-1,8,qp,33346,q,q,28590,p,p,33346,P-A-B+.avi,{ENTER},{ENTER}
11,try-11-1,8,qp,33337,q,q,28487,p,p,33337,P-A-B+.avi,{ENTER},{ENTER}
11,try-11-1,8,qp,33535,q,q,28682,p,p,33535,P-A-B+.avi,{ENTER},{ENTER}
11,try-11-1,8,qp,33372,q,q,28510,p,p,33372,P-A-B+.avi,{ENTER},{ENTER}
11,try-11-1,8,qp,33511,q,q,28600,p,p,33511,P-A-B+.avi,{ENTER},{ENTER}
12,try-12-1,8,qp,33442,q,q,28104,p,p,33442,P-A-B+.avi,{ENTER},{ENTER}
12,try-12-1,8,qp,33323,q,q,27368,p,p,33323,P-A-B+.avi,{ENTER},{ENTER}
12,try-12-1,8,qp,33345,q,q,27383,p,p,33345,P-A-B+.avi,{ENTER},{ENTER}
12,try-12-1,8,qp,33539,q,q,27303,p,p,33539,P-A-B+.avi,{ENTER},{ENTER}
12,try-12-1,8,qp,33375,q,q,28000,p,p,33375,P-A-B+.avi,{ENTER},{ENTER}
13,try-13-1,8,qp,33832,q,q,28132,p,p,33832,P-A-B+.avi,{ENTER},{ENTER}
13,try-13-1,8,qp,33369,q,q,28132,p,p,33369,P-A-B+.avi,{ENTER},{ENTER}
13,try-13-1,8,qp,33843,q,q,28207,p,p,33843,P-A-B+.avi,{ENTER},{ENTER}
13,try-13-1,8,qp,33342,q,q,28210,p,p,33342,P-A-B+.avi,{ENTER},{ENTER}
13,try-13-1,8,qp,33323,q,q,28157,p,p,33323,P-A-B+.avi,{ENTER},{ENTER}
14,try-14-1,8,qp,33665,q,q,28429,p,p,33665,P-A-B+.avi,{ENTER},{ENTER}
14,try-14-1,8,qp,33967,q,q,28244,p,p,33967,P-A-B+.avi,{ENTER},{ENTER}
14,try-14-1,8,qp,33676,q,q,28158,p,p,33676,P-A-B+.avi,{ENTER},{ENTER}
14,try-14-1,8,qp,33420,q,q,28276,p,p,33420,P-A-B+.avi,{ENTER},{ENTER}
14,try-14-1,8,qp,33449,q,q,28218,p,p,33449,P-A-B+.avi,{ENTER},{ENTER}
15,try-15-1,8,qp,33697,q,q,28558,p,p,33697,P-A-B+.avi,{ENTER},{ENTER}
15,try-15-1,8,qp,33839,q,q,28518,p,p,33839,P-A-B+.avi,{ENTER},{ENTER}
15,try-15-1,8,qp,33764,q,q,28519,p,p,33764,P-A-B+.avi,{ENTER},{ENTER}
15,try-15-1,8,qp,33585,q,q,28562,p,p,33585,P-A-B+.avi,{ENTER},{ENTER}
15,try-15-1,8,qp,33389,q,q,28562,p,p,33389,P-A-B+.avi,{ENTER},{ENTER}
16,try-16-1,8,qp,33754,q,q,28481,p,p,33754,P-A-B+.avi,{ENTER},{ENTER}
16,try-16-1,8,qp,33593,q,q,28382,p,p,33593,P-A-B+.avi,{ENTER},{ENTER}
16,try-16-1,8,qp,33753,q,q,28372,p,p,33753,P-A-B+.avi,{ENTER},{ENTER}
16,try-16-1,8,qp,33641,q,q,28340,p,p,33641,P-A-B+.avi,{ENTER},{ENTER}
16,try-16-1,8,qp,34217,q,q,28351,p,p,34217,P-A-B+.avi,{ENTER},{ENTER}
18,try-18-1,8,qp,33545,q,q,28414,p,p,33545,P-A-B+.avi,{ENTER},{ENTER}
18,try-18-1,8,qp,33751,q,q,28282,p,p,33751,P-A-B+.avi,{ENTER},{ENTER}
18,try-18-1,8,qp,33727,q,q,28332,p,p,33727,P-A-B+.avi,{ENTER},{ENTER}
18,try-18-1,8,qp,33768,q,q,28257,p,p,33768,P-A-B+.avi,{ENTER},{ENTER}
18,try-18-1,8,qp,33511,q,q,28312,p,p,33511,P-A-B+.avi,{ENTER},{ENTER}
19,try-19-1,8,qp,33326,q,q,28122,p,p,33326,P-A-B+.avi,{ENTER},{ENTER}
19,try-19-1,8,qp,33527,q,q,28320,p,p,33527,P-A-B+.avi,{ENTER},{ENTER}
19,try-19-1,8,qp,33358,q,q,28089,p,p,33358,P-A-B+.avi,{ENTER},{ENTER}
19,try-19-1,8,qp,33640,q,q,28213,p,p,33640,P-A-B+.avi,{ENTER},{ENTER}
19,try-19-1,8,qp,33296,q,q,28128,p,p,33296,P-A-B+.avi,{ENTER},{ENTER}
2,try-02-1,8,qp,33576,q,q,28202,p,p,33576,P-A-B+.avi,{ENTER},{ENTER}
2,try-02-1,8,qp,33599,q,q,28304,p,p,33599,P-A-B+.avi,{ENTER},{ENTER}
2,try-02-1,8,qp,33800,q,q,28402,p,p,33800,P-A-B+.avi,{ENTER},{ENTER}
2,try-02-1,8,qp,33546,q,q,28407,p,p,33546,P-A-B+.avi,{ENTER},{ENTER}
2,try-02-1,8,qp,33547,q,q,28348,p,p,33547,P-A-B+.avi,{ENTER},{ENTER}
20,try-20-1,8,qp,33404,q,q,28238,p,p,33404,P-A-B+.avi,{ENTER},{ENTER}
20,try-20-1,8,qp,33290,q,q,28249,p,p,33290,P-A-B+.avi,{ENTER},{ENTER}
20,try-20-1,8,qp,33290,q,q,28191,p,p,33290,P-A-B+.avi,{ENTER},{ENTER}
20,try-20-1,8,qp,33282,q,q,28236,p,p,33282,P-A-B+.avi,{ENTER},{ENTER}
20,try-20-1,8,qp,33290,q,q,28252,p,p,33290,P-A-B+.avi,{ENTER},{ENTER}
3,try-03-1,8,qp,33751,q,q,28453,p,p,33751,P-A-B+.avi,{ENTER},{ENTER}
3,try-03-1,8,qp,33799,q,q,28283,p,p,33799,P-A-B+.avi,{ENTER},{ENTER}
3,try-03-1,8,qp,33676,q,q,28558,p,p,33676,P-A-B+.avi,{ENTER},{ENTER}
3,try-03-1,8,qp,33658,q,q,28151,p,p,33658,P-A-B+.avi,{ENTER},{ENTER}
3,try-03-1,8,qp,33848,q,q,28134,p,p,33848,P-A-B+.avi,{ENTER},{ENTER}
4,try-04-1,8,qp,33305,q,q,28220,p,p,33305,P-A-B+.avi,{ENTER},{ENTER}
4,try-04-1,8,qp,33304,q,q,28182,p,p,33304,P-A-B+.avi,{ENTER},{ENTER}
4,try-04-1,8,qp,33275,q,q,28149,p,p,33275,P-A-B+.avi,{ENTER},{ENTER}
4,try-04-1,8,qp,33279,q,q,28170,p,p,33279,P-A-B+.avi,{ENTER},{ENTER}
4,try-04-1,8,qp,33260,q,q,28243,p,p,33260,P-A-B+.avi,{ENTER},{ENTER}
5,try-5-1,8,qp,33514,q,q,28130,p,p,33514,P-A-B+.avi,{ENTER},{ENTER}
5,try-5-1,8,qp,33492,q,q,27519,p,p,33492,P-A-B+.avi,{ENTER},{ENTER}
5,try-5-1,8,qp,33508,q,q,29689,p,p,33508,P-A-B+.avi,{ENTER},{ENTER}
5,try-5-1,8,qp,33296,q,q,28228,p,p,33296,P-A-B+.avi,{ENTER},{ENTER}
6,try-6-1,8,qp,33719,q,q,28222,p,p,33719,P-A-B+.avi,{ENTER},{ENTER}
6,try-6-1,8,qp,33409,q,q,28213,p,p,33409,P-A-B+.avi,{ENTER},{ENTER}
6,try-6-1,8,qp,33497,q,q,28080,p,p,33497,P-A-B+.avi,{ENTER},{ENTER}
6,try-6-1,8,qp,33362,q,q,28125,p,p,33362,P-A-B+.avi,{ENTER},{ENTER}
6,try-6-1,8,qp,33517,q,q,28098,p,p,33517,P-A-B+.avi,{ENTER},{ENTER}
7,try-7-1,8,qp,33518,q,q,28061,p,p,33518,P-A-B+.avi,{ENTER},{ENTER}
7,try-7-1,8,qp,33388,q,q,28366,p,p,33388,P-A-B+.avi,{ENTER},{ENTER}
7,try-7-1,8,qp,33397,q,q,28310,p,p,33397,P-A-B+.avi,{ENTER},{ENTER}
7,try-7-1,8,qp,33696,q,q,28261,p,p,33696,P-A-B+.avi,{ENTER},{ENTER}
7,try-7-1,8,qp,33371,q,q,28244,p,p,33371,P-A-B+.avi,{ENTER},{ENTER}
8,try-8-1,8,qp,34295,q,q,28206,p,p,34295,P-A-B+.avi,{ENTER},{ENTER}
8,try-8-1,8,qp,33568,q,q,28406,p,p,33568,P-A-B+.avi,{ENTER},{ENTER}
8,try-8-1,8,qp,33627,q,q,28286,p,p,33627,P-A-B+.avi,{ENTER},{ENTER}
8,try-8-1,8,qp,33694,q,q,28269,p,p,33694,P-A-B+.avi,{ENTER},{ENTER}
8,try-8-1,8,qp,33840,q,q,28259,p,p,33840,P-A-B+.avi,{ENTER},{ENTER}
9,try-9-1,8,qp,33839,q,q,28116,p,p,33839,P-A-B+.avi,{ENTER},{ENTER}
9,try-9-1,8,qp,33544,q,q,28205,p,p,33544,P-A-B+.avi,{ENTER},{ENTER}
9,try-9-1,8,qp,33431,q,q,28097,p,p,33431,P-A-B+.avi,{ENTER},{ENTER}
9,try-9-1,8,qp,33622,q,q,28115,p,p,33622,P-A-B+.avi,{ENTER},{ENTER}
9,try-9-1,8,qp,33647,q,q,28232,p,p,33647,P-A-B+.avi,{ENTER},{ENTER}
5,try-5-1,8,qq,29144,q,q,27489,p,q,29144,P-A-B+.avi,{ENTER},{ENTER}